ax,ay,az,gx,gy,gz,thr,as,vz,alt,roll,pitch,label
0.0000,0.0000,-9.8198,0.0000,0.0000,0.0000,0.0000,0.4414,-0.0100,0.0930,0.0546,0.0430,0
0.0000,0.0000,-9.8198,0.0000,0.0000,0.0000,0.0000,0.3124,-0.0100,0.0340,0.0557,0.0428,0
0.0000,0.0000,-9.8198,0.0000,0.0000,0.0000,0.0000,0.3640,-0.0100,0.0070,0.0563,0.0431,0
0.0000,0.0000,-9.8198,0.0000,0.0000,0.0000,0.0000,0.6765,-0.0100,0.0020,0.0570,0.0432,0
0.0000,0.0000,-9.8198,0.0000,0.0000,0.0000,0.0000,0.4928,-0.0100,-0.0010,0.0577,0.0434,0
0.0000,0.0000,-9.8198,0.0000,0.0000,0.0000,0.0000,0.7658,-0.0100,-0.0020,0.0579,0.0435,0
0.0000,0.0000,-9.8198,0.0000,0.0000,0.0000,0.0000,0.7355,-0.0100,0.0000,0.0584,0.0436,0
0.0000,0.0000,-9.8198,0.0000,0.0000,0.0000,0.0000,0.6187,-0.0100,0.0010,0.0586,0.0439,0
0.0000,0.0000,-9.8198,0.0000,0.0000,0.0000,0.0000,0.8456,-0.0100,0.0060,0.0588,0.0440,0
0.0000,0.0000,-9.8198,0.0000,0.0000,0.0000,0.0000,0.7499,-0.0100,0.0100,0.0594,0.0445,0
0.0000,0.0000,-9.8198,0.0000,0.0000,0.0000,0.0000,0.6570,-0.0100,0.0190,0.0600,0.0445,0
0.0000,0.0000,-9.8198,0.0000,0.0000,0.0000,0.0000,0.7633,-0.0100,0.0260,0.0604,0.0453,0
0.0000,0.0000,-9.8198,0.0000,0.0000,0.0000,0.0000,0.6693,-0.0100,0.0340,0.0608,0.0458,0
0.0000,0.0000,-9.8198,0.0000,0.0000,0.0000,0.0000,0.6829,-0.0100,0.0370,0.0611,0.0462,0
0.0000,0.0000,-9.8198,0.0000,0.0000,0.0000,0.0000,0.6587,-0.0100,0.0400,0.0610,0.0463,0
0.0000,0.0000,-9.8198,0.0000,0.0000,0.0000,0.0000,0.6006,-0.0100,0.0410,0.0612,0.0462,0
0.0000,0.0000,-9.8198,0.0000,0.0000,0.0000,0.0000,0.6012,-0.0100,0.0420,0.0615,0.0459,0
0.0000,0.0000,-9.8198,0.0000,0.0000,0.0000,0.0000,0.6491,-0.0100,0.0420,0.0620,0.0464,0
0.0000,0.0000,-9.8198,0.0000,0.0000,0.0000,0.0000,0.1790,0.0000,0.0370,0.0621,0.0469,0
0.0000,0.0000,-9.8198,0.0000,0.0000,0.0000,0.0000,0.5011,0.0000,0.0340,0.0627,0.0474,0
0.0000,0.0000,-9.8198,0.0000,0.0000,0.0000,0.0000,0.8168,0.0000,0.0330,0.0627,0.0476,0
0.0000,0.0000,-9.8198,0.0000,0.0000,0.0000,0.0000,0.5054,0.0000,0.0380,0.0628,0.0481,0
0.0000,0.0000,-9.8198,0.0000,0.0000,0.0000,0.0000,0.9640,0.0000,0.0450,0.0630,0.0482,0
0.0000,0.0000,-9.8198,0.0000,0.0000,0.0000,0.0000,0.5804,0.0000,0.0440,0.0631,0.0482,0
0.0000,0.0000,-9.8198,0.0000,0.0000,0.0000,0.0000,0.8213,0.0000,0.0340,0.0631,0.0484,0
0.0000,0.0000,-9.8198,0.0000,0.0000,0.0000,0.0000,0.2226,0.0000,0.0070,0.0634,0.0483,0
0.0000,0.0000,-9.8198,0.0000,0.0000,0.0000,0.0000,0.3289,0.0000,-0.0040,0.0637,0.0483,0
0.0000,0.0000,-9.8198,0.0000,0.0000,0.0000,0.0000,0.7236,0.0000,-0.0030,0.0639,0.0487,0
0.0000,0.0000,-9.8198,0.0000,0.0000,0.0000,0.0000,0.7101,0.0000,0.0050,0.0642,0.0492,0
0.0000,0.0000,-9.8198,0.0000,0.0000,0.0000,0.0000,0.3905,0.0000,0.0150,0.0647,0.0495,0
0.0000,0.0000,-9.8198,0.0000,0.0000,0.0000,0.0000,0.3943,-0.0100,0.0310,0.0649,0.0496,0
0.0000,0.0000,-9.8198,0.0000,0.0000,0.0000,0.0000,0.2877,-0.0100,0.0340,0.0646,0.0495,0
0.0000,0.0000,-9.8198,0.0000,0.0000,0.0000,0.0000,0.7400,-0.0100,0.0380,0.0646,0.0496,0
0.0000,0.0000,-9.8198,0.0000,0.0000,0.0000,0.0000,0.3727,-0.0100,0.0470,0.0642,0.0502,0
0.0000,0.0000,-9.8198,0.0000,0.0000,0.0000,0.0000,0.2309,-0.0100,0.0580,0.0638,0.0499,0
0.0000,0.0000,-9.8198,0.0000,0.0000,0.0000,0.0000,0.7468,-0.0100,0.0690,0.0638,0.0502,0
0.0000,0.0000,-9.8198,0.0000,0.0000,0.0000,0.0000,0.3646,-0.0100,0.0830,0.0641,0.0507,0
0.0000,0.0000,-9.8198,0.0000,0.0000,0.0000,0.0000,0.4149,-0.0100,0.0900,0.0645,0.0508,0
0.0000,0.0000,-9.8198,0.0000,0.0000,0.0000,0.0000,0.3137,-0.0100,0.0980,0.0646,0.0510,0
0.0000,0.0000,-9.8198,0.0000,0.0000,0.0000,0.0000,0.8657,-0.0100,0.1020,0.0649,0.0514,0
0.0000,0.0000,-9.8198,0.0000,0.0000,0.0000,0.0000,0.5990,-0.0100,0.1070,0.0650,0.0517,0
0.0000,0.0000,-9.8198,0.0000,0.0000,0.0000,0.0000,0.1248,-0.0100,0.1080,0.0653,0.0520,0
0.0000,0.0000,-9.8198,0.0000,0.0000,0.0000,0.0000,0.7523,-0.0100,0.1100,0.0646,0.0521,0
0.0000,0.0000,-9.8198,0.0000,0.0000,0.0000,0.0000,0.8969,-0.0100,0.1110,0.0647,0.0522,0
0.0000,0.0000,-9.8198,0.0000,0.0000,0.0000,0.0000,0.2473,-0.0100,0.1140,0.0651,0.0530,0
0.0000,0.0000,-9.8198,0.0000,0.0000,0.0000,0.0000,0.7320,-0.0100,0.1180,0.0653,0.0532,0
0.0000,0.0000,-9.8198,0.0000,0.0000,0.0000,0.0000,0.5558,-0.0100,0.1240,0.0655,0.0532,0
0.0000,0.0000,-9.8198,0.0000,0.0000,0.0000,0.0000,0.8796,-0.0100,0.1250,0.0657,0.0532,0
0.0000,0.0000,-9.8198,0.0000,0.0000,0.0000,0.0000,0.6939,-0.0100,0.1040,0.0661,0.0533,0
0.0000,0.0000,-9.8198,0.0000,0.0000,0.0000,0.0000,0.9266,-0.0100,0.0420,0.0663,0.0532,0
0.0000,0.0000,-9.8198,0.0000,0.0000,0.0000,0.0000,0.2053,0.0000,0.0000,0.0665,0.0529,0
0.0000,0.0000,-9.8100,0.0000,0.0000,0.0000,0.0000,0.2754,0.0000,-0.0120,0.0664,0.0527,0
0.0000,0.0000,-9.8198,0.0000,0.0000,0.0000,0.0000,0.4648,0.0000,-0.0240,0.0667,0.0529,0
0.0000,0.0000,-9.8198,0.0000,0.0000,0.0000,0.0000,0.7416,0.0000,-0.0330,0.0669,0.0535,0
0.0000,0.0000,-9.8198,0.0000,0.0000,0.0000,0.0000,0.9228,0.0000,-0.0440,0.0672,0.0538,0
0.0000,0.0000,-9.8198,0.0000,0.0000,0.0000,0.0000,1.1831,0.0000,-0.0430,0.0671,0.0540,0
0.0000,0.0000,-9.8198,0.0000,0.0000,0.0000,0.0000,0.8248,0.0000,-0.0430,0.0671,0.0545,0
0.0000,0.0000,-9.8198,0.0000,0.0000,0.0000,0.0000,0.7588,0.0000,-0.0480,0.0673,0.0547,0
0.0000,0.0000,-9.8198,0.0000,0.0000,0.0000,0.0000,0.5749,0.0000,-0.0560,0.0671,0.0548,0
0.0000,0.0000,-9.8198,0.0000,0.0000,0.0000,0.0000,0.2065,0.0000,-0.0630,0.0672,0.0547,0
0.0000,0.0000,-9.8198,0.0000,0.0000,0.0000,0.0000,0.6529,0.0000,-0.0710,0.0673,0.0551,0
0.0000,0.0000,-9.8198,0.0000,0.0000,0.0000,0.0000,0.6049,0.0000,-0.0710,0.0678,0.0556,0
0.0000,0.0000,-9.8198,0.0000,0.0000,0.0000,0.0000,0.5290,0.0000,-0.0700,0.0676,0.0558,0
0.0000,0.0000,-9.8198,0.0000,0.0000,0.0000,0.0000,0.7463,0.0000,-0.0730,0.0675,0.0559,0
0.0000,0.0000,-9.8198,0.0000,0.0000,0.0000,0.0000,0.5867,0.0000,-0.0780,0.0674,0.0563,0
0.0000,0.0000,-9.8198,0.0000,0.0000,0.0000,0.0000,0.5765,0.0000,-0.0810,0.0678,0.0569,0
0.0000,0.0000,-9.8198,0.0000,0.0000,0.0000,0.0000,0.6988,0.0000,-0.0830,0.0679,0.0568,0
0.0000,0.0000,-9.8198,0.0000,0.0000,0.0000,0.0000,0.5265,0.0000,-0.0840,0.0682,0.0570,0
0.0000,0.0000,-9.8198,0.0000,0.0000,0.0000,0.0000,0.4156,0.0000,-0.0900,0.0687,0.0571,0
0.0000,0.0000,-9.8198,0.0000,0.0000,0.0000,0.0000,0.4383,0.0000,-0.0960,0.0691,0.0575,0
0.0000,0.0000,-9.8198,0.0000,0.0000,0.0000,0.0000,0.5303,0.0000,-0.1030,0.0692,0.0580,0
0.0000,0.0000,-9.8198,0.0000,0.0000,0.0000,0.0000,0.7287,0.0000,-0.1060,0.0692,0.0578,0
0.0000,0.0000,-9.8198,0.0010,0.0010,0.0000,0.0000,0.7878,0.0000,-0.0770,0.0694,0.0584,0
0.0000,0.0000,-9.8198,0.0010,0.0000,0.0000,0.0000,0.6690,0.0100,-0.0390,0.0696,0.0585,0
0.0000,0.0000,-9.8198,0.0000,0.0000,0.0000,0.0000,0.2536,0.0100,-0.0280,0.0695,0.0585,0
0.0000,0.0000,-9.8198,0.0000,0.0000,0.0000,0.0000,0.5852,0.0100,-0.0310,0.0696,0.0586,0
0.0000,0.0000,-9.8198,0.0000,0.0000,0.0000,0.0000,0.3607,0.0100,-0.0370,0.0695,0.0588,0
0.0000,0.0000,-9.8198,0.0000,0.0000,0.0000,0.0000,0.4978,0.0100,-0.0380,0.0701,0.0591,0
0.0000,0.0000,-9.8198,0.0000,0.0000,0.0000,0.0000,0.2210,0.0100,-0.0350,0.0701,0.0591,0
0.0000,0.0000,-9.8198,0.0000,0.0000,0.0000,0.0000,0.5302,0.0100,-0.0360,0.0700,0.0593,0
0.0000,0.0000,-9.8198,0.0000,0.0000,0.0000,0.0000,0.5452,0.0100,-0.0360,0.0703,0.0594,0
0.0000,0.0000,-9.8198,0.0000,0.0010,0.0000,0.0000,0.4234,0.0100,-0.0420,0.0704,0.0592,0
0.0000,0.0000,-9.8198,0.0000,0.0000,0.0010,0.0000,0.2857,0.0100,-0.0480,0.0705,0.0592,0
0.0000,0.0000,-9.8198,0.0000,0.0000,0.0010,0.0000,0.9634,0.0100,-0.0540,0.0704,0.0589,0
0.0000,0.0000,-9.8198,0.0000,0.0000,0.0000,0.0000,0.4033,0.0100,-0.0590,0.0702,0.0586,0
0.0000,0.0000,-9.8198,0.0000,0.0000,0.0000,0.0000,0.7185,0.0100,-0.0610,0.0704,0.0586,0
0.0000,0.0000,-9.8198,0.0000,0.0000,0.0000,0.0000,0.7430,0.0100,-0.0620,0.0706,0.0590,0
0.0000,0.0000,-9.8198,0.0010,0.0000,0.0000,0.0000,0.5891,0.0100,-0.0640,0.0709,0.0590,0
0.0000,0.0000,-9.8198,0.0010,0.0010,0.0010,0.0000,0.2355,0.0100,-0.0620,0.0709,0.0589,0
0.0000,0.0000,-9.8198,0.0010,0.0000,0.0010,0.0000,0.4914,0.0100,-0.0630,0.0714,0.0589,0
0.0000,0.0000,-9.8198,0.0010,0.0000,0.0010,0.0000,0.8516,0.0000,-0.0630,0.0715,0.0588,0
0.0000,0.0000,-9.8198,0.0000,0.0000,0.0010,0.0000,0.5454,0.0000,-0.0620,0.0714,0.0583,0
0.0000,0.0000,-9.8100,0.0000,0.0000,0.0000,0.0000,0.7126,0.0000,-0.0640,0.0713,0.0581,0
0.0000,0.0000,-9.8198,0.0010,0.0000,0.0010,0.0000,0.7456,0.0000,-0.0620,0.0714,0.0583,0
0.0000,0.0000,-9.8198,0.0010,0.0010,0.0000,0.0000,0.2951,0.0000,-0.0620,0.0717,0.0588,0
0.0000,0.0000,-9.8198,0.0000,0.0010,0.0010,0.0000,0.7009,0.0000,-0.0620,0.0716,0.0587,0
0.0000,0.0000,-9.8198,0.0000,0.0010,0.0010,0.0000,0.6771,0.0000,-0.0460,0.0715,0.0585,0
0.0000,0.0000,-9.8198,0.0010,0.0010,0.0010,0.0000,0.3163,0.0000,-0.0240,0.0718,0.0586,0
0.0000,0.0000,-9.8198,0.0010,0.0000,0.0010,0.0000,0.6521,0.0000,-0.0050,0.0714,0.0587,0
0.0000,0.0000,-9.8198,0.0010,0.0010,0.0000,0.0000,0.6014,0.0000,0.0110,0.0713,0.0588,0
0.0000,0.0000,-9.8198,0.0010,0.0010,0.0010,0.0000,0.7250,0.0000,0.0250,0.0714,0.0587,0
0.0000,0.0000,-9.8100,0.0010,0.0010,0.0000,0.0000,0.1756,0.0000,0.0380,0.0715,0.0590,0
0.0000,0.0000,-9.8198,0.0010,0.0000,0.0010,0.0000,0.1677,0.0000,0.0450,0.0718,0.0592,0
0.0000,0.0000,-9.8198,0.0010,0.0010,0.0010,0.0000,0.2839,0.0000,0.0490,0.0721,0.0595,0
0.0000,0.0000,-9.8198,0.0010,0.0010,0.0010,0.0000,0.3413,0.0000,0.0500,0.0721,0.0593,0
0.0000,0.0000,-9.8198,0.0010,0.0010,0.0010,0.0000,0.3861,0.0000,0.0540,0.0725,0.0597,0
0.0000,0.0000,-9.8198,0.0000,0.0010,0.0010,0.0000,0.4152,0.0000,0.0600,0.0720,0.0591,0
0.0000,0.0000,-9.8198,0.0010,0.0010,0.0000,0.0000,0.1578,0.0000,0.0660,0.0719,0.0593,0
0.0000,0.0000,-9.8198,0.0010,0.0010,0.0010,0.0000,0.8796,0.0000,0.0710,0.0716,0.0594,0
0.0000,0.0000,-9.8198,0.0010,0.0010,0.0010,0.0000,0.6021,0.0000,0.0730,0.0717,0.0596,0
0.0000,0.0000,-9.8198,0.0010,0.0010,0.0010,0.0000,0.8610,0.0000,0.0710,0.0717,0.0596,0
0.0000,0.0000,-9.8198,0.0010,0.0010,0.0010,0.0000,0.7461,0.0000,0.0760,0.0719,0.0598,0
0.0000,0.0000,-9.8198,0.0010,0.0010,0.0010,0.0000,0.4225,0.0000,0.0830,0.0720,0.0599,0
0.0000,0.0000,-9.8198,0.0010,0.0010,0.0010,0.0000,0.8106,0.0000,0.0850,0.0723,0.0598,0
0.0000,0.0000,-9.8198,0.0010,0.0010,0.0010,0.0000,0.8693,0.0000,0.0880,0.0720,0.0599,0
0.0000,0.0000,-9.8198,0.0010,0.0010,0.0010,0.0000,0.8677,0.0000,0.0950,0.0721,0.0600,0
0.0000,0.0000,-9.8198,0.0000,0.0010,0.0010,0.0000,1.0081,0.0000,0.0990,0.0721,0.0602,0
0.0000,0.0000,-9.8100,0.0010,0.0010,0.0010,0.0000,1.0093,0.0000,0.1010,0.0724,0.0602,0
0.0000,0.0000,-9.8198,0.0010,0.0010,0.0010,0.0000,0.7727,0.0000,0.1050,0.0728,0.0601,0
0.0000,0.0000,-9.8198,0.0010,0.0010,0.0010,0.0000,0.6281,0.0000,0.1070,0.0733,0.0602,0
0.0000,0.0000,-9.8198,0.0010,0.0010,0.0010,0.0000,0.4500,0.0000,0.0700,0.0731,0.0603,0
0.0000,0.0000,-9.8198,0.0010,0.0010,0.0010,0.0000,0.6605,0.0000,0.0190,0.0726,0.0607,0
0.0000,0.0000,-9.8198,0.0010,0.0010,0.0010,0.0000,1.0782,0.0000,-0.0050,0.0727,0.0608,0
0.0000,0.0000,-9.8100,0.0010,0.0010,0.0010,0.0000,0.4048,0.0000,-0.0180,0.0725,0.0607,0
0.0000,0.0000,-9.8198,0.0010,0.0010,0.0010,0.0000,0.7800,0.0000,-0.0300,0.0723,0.0610,0
0.0000,0.0000,-9.8198,0.0010,0.0010,0.0010,0.0000,0.8230,0.0000,-0.0370,0.0724,0.0612,0
0.0000,0.0000,-9.8198,0.0010,0.0010,0.0010,0.0000,0.7829,0.0000,-0.0460,0.0722,0.0611,0
0.0000,0.0000,-9.8198,0.0010,0.0010,0.0010,0.0000,0.3484,0.0000,-0.0530,0.0724,0.0611,0
0.0000,0.0000,-9.8198,0.0010,0.0010,0.0010,0.0000,0.5473,0.0000,-0.0520,0.0732,0.0613,0
0.0000,0.0000,-9.8198,0.0010,0.0010,0.0010,0.0000,0.4829,0.0000,-0.0460,0.0733,0.0613,0
0.0000,0.0000,-9.8198,0.0010,0.0010,0.0010,0.0000,0.0881,0.0000,-0.0430,0.0739,0.0610,0
0.0000,0.0000,-9.8198,0.0010,0.0010,0.0010,0.0000,0.2923,0.0000,-0.0410,0.0737,0.0607,0
0.0000,0.0000,-9.8198,0.0010,0.0010,0.0010,0.0000,0.7844,0.0000,-0.0420,0.0742,0.0608,0
0.0000,0.0000,-9.8198,0.0010,0.0010,0.0010,0.0000,0.8786,0.0000,-0.0470,0.0740,0.0605,0
0.0000,0.0000,-9.8198,0.0010,0.0010,0.0010,0.0000,0.6885,0.0000,-0.0510,0.0737,0.0602,0
0.0000,0.0000,-9.8198,0.0010,0.0010,0.0010,0.0000,0.3929,0.0000,-0.0540,0.0739,0.0601,0
0.0000,0.0000,-9.8198,0.0010,0.0010,0.0010,0.0000,0.7852,0.0000,-0.0590,0.0740,0.0606,0
0.0000,0.0000,-9.8198,0.0010,0.0010,0.0010,0.0000,0.2819,0.0000,-0.0640,0.0742,0.0610,0
0.0000,0.0000,-9.8198,0.0010,0.0010,0.0010,0.0000,0.6155,0.0000,-0.0630,0.0739,0.0608,0
0.0000,0.0000,-9.8198,0.0010,0.0010,0.0010,0.0000,0.8618,0.0000,-0.0590,0.0738,0.0606,0
0.0000,0.0000,-9.8198,0.0010,0.0010,0.0010,0.0000,0.1101,0.0000,-0.0580,0.0741,0.0606,0
0.0000,0.0000,-9.8198,0.0010,0.0010,0.0010,0.0000,0.1414,0.0000,-0.0580,0.0740,0.0606,0
0.0000,0.0000,-9.8198,0.0010,0.0010,0.0010,0.0000,0.1053,0.0000,-0.0640,0.0738,0.0606,0
0.0000,0.0000,-9.8198,0.0010,0.0010,0.0010,0.0000,0.0922,0.0000,-0.0640,0.0740,0.0608,0
0.0000,0.0000,-9.8198,0.0010,0.0010,0.0010,0.0000,0.3956,0.0000,-0.0470,0.0742,0.0613,0
0.0000,0.0000,-9.8198,0.0010,0.0010,0.0010,0.0000,0.8034,0.0000,-0.0250,0.0745,0.0616,0
0.0000,0.0000,-9.8198,0.0010,0.0010,0.0010,0.0000,0.3756,0.0000,-0.0180,0.0745,0.0616,0
0.0000,0.0000,-9.8198,0.0010,0.0010,0.0010,0.0000,0.3720,0.0000,-0.0210,0.0743,0.0615,0
0.0000,0.0000,-9.8198,0.0010,0.0010,0.0010,0.0000,0.4936,0.0000,-0.0270,0.0743,0.0616,0
0.0000,0.0000,-9.8198,0.0010,0.0010,0.0010,0.0000,0.7217,0.0000,-0.0370,0.0747,0.0617,0
0.0000,0.0000,-9.8198,0.0010,0.0010,0.0010,0.0000,0.7170,0.0000,-0.0520,0.0745,0.0615,0
0.0000,0.0000,-9.8198,0.0010,0.0010,0.0010,0.0000,0.3117,0.0100,-0.0580,0.0748,0.0615,0
0.0000,0.0000,-9.8198,0.0010,0.0010,0.0010,0.0000,0.6551,0.0100,-0.0660,0.0754,0.0618,0
0.0000,0.0000,-9.8198,0.0010,0.0010,0.0010,0.0000,0.6895,0.0100,-0.0760,0.0759,0.0617,0
0.0000,0.0000,-9.8198,0.0010,0.0010,0.0010,0.0000,0.8775,0.0100,-0.0870,0.0760,0.0619,0
0.0000,0.0000,-9.8198,0.0010,0.0010,0.0010,0.0000,0.3127,0.0100,-0.0910,0.0761,0.0620,0
0.0000,0.0000,-9.8198,0.0010,0.0010,0.0010,0.0000,0.8486,0.0100,-0.0970,0.0761,0.0619,0
0.0000,0.0000,-9.8198,0.0010,0.0010,0.0010,0.0000,0.8594,0.0100,-0.1050,0.0763,0.0621,0
0.0000,0.0000,-9.8198,0.0010,0.0010,0.0010,0.0000,0.2684,0.0100,-0.1100,0.0763,0.0619,0
0.0000,0.0000,-9.8198,0.0010,0.0010,0.0010,0.0000,0.4774,0.0100,-0.1180,0.0762,0.0618,0
0.0000,0.0000,-9.8198,0.0010,0.0010,0.0010,0.0000,0.5673,0.0100,-0.1230,0.0760,0.0620,0
0.0000,0.0000,-9.8198,0.0010,0.0010,0.0010,0.0000,0.2810,0.0100,-0.1230,0.0763,0.0627,0
0.0000,0.0000,-9.8198,0.0010,0.0010,0.0010,0.0000,0.6055,0.0100,-0.1230,0.0761,0.0626,0
0.0000,0.0000,-9.8198,0.0010,0.0010,0.0010,0.0000,0.5147,0.0100,-0.1190,0.0759,0.0625,0
0.0000,0.0000,-9.8198,0.0010,0.0010,0.0010,0.0000,0.8803,0.0000,-0.1100,0.0760,0.0624,0
0.0000,0.0000,-9.8198,0.0010,0.0010,0.0010,0.0000,0.8560,0.0000,-0.1040,0.0758,0.0624,0
0.0000,0.0000,-9.8198,0.0010,0.0010,0.0010,0.0000,0.4459,0.0000,-0.0970,0.0758,0.0623,0
0.0000,0.0000,-9.8198,0.0010,0.0010,0.0010,0.0000,0.3351,0.0000,-0.0950,0.0762,0.0625,0
0.0000,0.0000,-9.8198,0.0010,0.0010,0.0010,0.0000,0.1520,0.0000,-0.0660,0.0761,0.0626,0
0.0000,0.0000,-9.8198,0.0010,0.0010,0.0010,0.0000,0.9899,0.0000,-0.0300,0.0763,0.0629,0
0.0000,0.0000,-9.8198,0.0010,0.0010,0.0010,0.0000,0.5107,0.0000,-0.0290,0.0767,0.0631,0
0.0000,0.0000,-9.8198,0.0010,0.0010,0.0010,0.0000,0.2816,0.0100,-0.0370,0.0766,0.0632,0
0.0000,0.0000,-9.8198,0.0010,0.0010,0.0010,0.0000,0.5570,0.0100,-0.0520,0.0764,0.0635,0
0.0000,0.0000,-9.8198,0.0010,0.0010,0.0010,0.0000,0.4755,0.0100,-0.0650,0.0764,0.0636,0
0.0000,0.0000,-9.8198,0.0010,0.0010,0.0010,0.0000,0.8858,0.0100,-0.0740,0.0761,0.0630,0
0.0000,0.0000,-9.8198,0.0010,0.0010,0.0010,0.0000,0.6159,0.0100,-0.0840,0.0759,0.0627,0
0.0000,0.0000,-9.8198,0.0010,0.0010,0.0010,0.0000,0.7625,0.0100,-0.0940,0.0757,0.0625,0
0.0000,0.0000,-9.8198,0.0010,0.0010,0.0010,0.0000,0.4050,0.0100,-0.1050,0.0762,0.0628,0
0.0000,0.0000,-9.8198,0.0010,0.0010,0.0010,0.0000,0.7905,0.0100,-0.1060,0.0759,0.0631,0
0.0000,0.0000,-9.8198,0.0010,0.0010,0.0010,0.0000,0.9735,0.0100,-0.1070,0.0758,0.0631,0
0.0000,0.0000,-9.8198,0.0010,0.0010,0.0010,0.0000,1.0898,0.0100,-0.1090,0.0759,0.0632,0
0.0000,0.0000,-9.8100,0.0010,0.0010,0.0010,0.0000,0.6722,0.0100,-0.1110,0.0756,0.0634,0
0.0000,0.0000,-9.8198,0.0010,0.0010,0.0010,0.0000,0.7663,0.0100,-0.1090,0.0755,0.0635,0
0.0000,0.0000,-9.8198,0.0010,0.0010,0.0010,0.0000,0.2304,0.0100,-0.1080,0.0753,0.0634,0
0.0000,0.0000,-9.8198,0.0010,0.0010,0.0010,0.0000,0.1584,0.0100,-0.1130,0.0752,0.0634,0
0.0000,0.0000,-9.8198,0.0010,0.0010,0.0010,0.0000,0.2608,0.0100,-0.1180,0.0754,0.0636,0
0.0000,0.0000,-9.8198,0.0010,0.0010,0.0010,0.0000,0.5787,0.0100,-0.1270,0.0754,0.0638,0
0.0000,0.0000,-9.8198,0.0010,0.0010,0.0010,0.0000,0.8636,0.0100,-0.1380,0.0755,0.0640,0
0.0000,0.0000,-9.8198,0.0010,0.0010,0.0010,0.0000,0.6431,0.0100,-0.1470,0.0759,0.0636,0
0.0000,0.0000,-9.8198,0.0010,0.0010,0.0010,0.0000,0.5572,0.0100,-0.1540,0.0761,0.0636,0
0.0000,0.0000,-9.8198,0.0010,0.0010,0.0010,0.0000,0.2963,0.0100,-0.1610,0.0762,0.0639,0
0.0000,0.0000,-9.8198,0.0010,0.0010,0.0010,0.0000,0.6589,0.0100,-0.1670,0.0757,0.0638,0
0.0000,0.0000,-9.8198,0.0010,0.0010,0.0010,0.0000,0.3613,0.0100,-0.1180,0.0754,0.0639,0
0.0000,0.0000,-9.8198,0.0010,0.0010,0.0010,0.0000,0.5278,0.0100,-0.0530,0.0756,0.0638,0
0.0000,0.0000,-9.8198,0.0010,0.0010,0.0010,0.0000,0.3541,0.0100,-0.0200,0.0754,0.0637,0
0.0000,0.0000,-9.8198,0.0010,0.0010,0.0010,0.0000,0.5414,0.0100,-0.0030,0.0757,0.0638,0
0.0000,0.0000,-9.8198,0.0010,0.0010,0.0010,0.0000,0.7126,0.0100,0.0050,0.0756,0.0639,0
0.0000,0.0000,-9.8198,0.0010,0.0010,0.0010,0.0000,0.4140,0.0000,0.0110,0.0757,0.0636,0
0.0000,0.0000,-9.8198,0.0010,0.0010,0.0010,0.0000,0.6180,0.0000,0.0150,0.0758,0.0637,0
0.0000,0.0000,-9.8198,0.0010,0.0010,0.0010,0.0000,0.6632,0.0000,0.0200,0.0757,0.0633,0
0.0000,0.0000,-9.8198,0.0010,0.0010,0.0010,0.0000,0.9416,0.0000,0.0240,0.0757,0.0630,0
0.0000,0.0000,-9.8198,0.0010,0.0010,0.0010,0.0000,0.7247,0.0000,0.0290,0.0759,0.0631,0
0.0000,0.0000,-9.8198,0.0010,0.0010,0.0010,0.0000,0.8612,0.0000,0.0420,0.0759,0.0635,0
0.0000,0.0000,-9.8198,0.0010,0.0010,0.0010,0.0000,0.9973,0.0000,0.0560,0.0760,0.0636,0
0.0000,0.0000,-9.8100,0.0010,0.0010,0.0010,0.0000,0.6961,0.0000,0.0670,0.0759,0.0634,0
0.0000,0.0000,-9.8198,0.0010,0.0010,0.0010,0.0000,0.7354,0.0000,0.0770,0.0757,0.0634,0
0.0000,0.0000,-9.8198,0.0010,0.0010,0.0010,0.0000,0.8661,0.0000,0.0820,0.0755,0.0633,0
0.0000,0.0000,-9.8198,0.0010,0.0010,0.0010,0.0000,0.3442,0.0000,0.0860,0.0753,0.0636,0
0.0000,0.0000,-9.8198,0.0010,0.0010,0.0010,0.0000,0.5604,0.0000,0.0960,0.0751,0.0637,0
0.0000,0.0000,-9.8198,0.0010,0.0010,0.0010,0.0000,0.4002,0.0000,0.1010,0.0753,0.0642,0
0.0000,0.0000,-9.8198,0.0010,0.0010,0.0010,0.0000,0.4120,0.0000,0.1040,0.0756,0.0640,0
0.0000,0.0000,-9.8198,0.0010,0.0010,0.0010,0.0000,0.6166,0.0000,0.1020,0.0756,0.0643,0
0.0000,0.0000,-9.8198,0.0010,0.0010,0.0010,0.0000,0.8781,0.0000,0.0990,0.0757,0.0646,0
0.0000,0.0000,-9.8198,0.0010,0.0010,0.0010,0.0000,0.9945,0.0000,0.1030,0.0759,0.0649,0
0.0000,0.0000,-9.8198,0.0010,0.0010,0.0010,0.0000,0.3853,0.0000,0.1080,0.0760,0.0646,0
0.0000,0.0000,-9.8198,0.0010,0.0010,0.0010,0.0000,0.4080,0.0000,0.1110,0.0758,0.0647,0
0.0000,0.0000,-9.8198,0.0010,0.0010,0.0010,0.0000,0.4744,0.0000,0.0730,0.0755,0.0645,0
0.0000,0.0000,-9.8198,0.0010,0.0010,0.0010,0.0000,0.1637,-0.0100,0.0260,0.0755,0.0644,0
0.0000,0.0000,-9.8198,0.0010,0.0010,0.0010,0.0000,0.4405,0.0000,0.0020,0.0753,0.0641,0
0.0000,0.0000,-9.8198,0.0010,0.0010,0.0010,0.0000,0.5048,0.0000,-0.0080,0.0756,0.0645,0
0.0000,0.0000,-9.8198,0.0010,0.0010,0.0010,0.0000,0.5378,0.0000,-0.0160,0.0754,0.0645,0
0.0000,0.0000,-9.8198,0.0010,0.0010,0.0010,0.0000,0.8493,0.0000,-0.0170,0.0754,0.0645,0
0.0000,0.0000,-9.8198,0.0010,0.0010,0.0010,0.0000,0.5840,0.0000,-0.0170,0.0753,0.0642,0
0.0000,0.0000,-9.8198,0.0010,0.0010,0.0010,0.0000,0.5182,0.0000,-0.0160,0.0755,0.0643,0
0.0000,0.0000,-9.8198,0.0010,0.0010,0.0010,0.0000,0.7788,0.0000,-0.0150,0.0754,0.0642,0
0.0000,0.0000,-9.8198,0.0010,0.0010,0.0010,0.0000,0.4978,0.0000,-0.0210,0.0755,0.0645,0
0.0000,0.0000,-9.8198,0.0010,0.0010,0.0010,0.0000,0.5749,0.0000,-0.0270,0.0754,0.0640,0
0.0000,0.0000,-9.8198,0.0010,0.0010,0.0010,0.0000,0.4420,0.0000,-0.0320,0.0751,0.0638,0
0.0000,0.0000,-9.8198,0.0010,0.0010,0.0010,0.0000,0.3871,0.0000,-0.0320,0.0752,0.0640,0
0.0000,0.0000,-9.8100,0.0010,0.0010,0.0010,0.0000,0.4659,0.0000,-0.0310,0.0757,0.0642,0
0.0000,0.0000,-9.8198,0.0010,0.0010,0.0010,0.0000,0.7164,0.0000,-0.0280,0.0757,0.0641,0
0.0000,0.0000,-9.8198,0.0010,0.0010,0.0010,0.0000,0.3894,0.0000,-0.0300,0.0758,0.0636,0
0.0000,0.0000,-9.8198,0.0010,0.0010,0.0010,0.0000,0.4389,0.0000,-0.0360,0.0757,0.0634,0
0.0000,0.0000,-9.8198,0.0010,0.0010,0.0010,0.0000,0.2919,0.0000,-0.0410,0.0755,0.0633,0
0.0000,0.0000,-9.8198,0.0010,0.0010,0.0010,0.0000,0.1193,0.0000,-0.0450,0.0753,0.0627,0
0.0000,0.0000,-9.8198,0.0010,0.0010,0.0010,0.0000,0.6222,0.0000,-0.0470,0.0752,0.0624,0
0.0000,0.0000,-9.8198,0.0010,0.0010,0.0010,0.0000,0.2238,0.0000,-0.0460,0.0756,0.0627,0
0.0000,0.0000,-9.8198,0.0010,0.0010,0.0010,0.0000,0.4343,0.0000,-0.0440,0.0757,0.0628,0
0.0000,0.0000,-9.8198,0.0010,0.0010,0.0010,0.0000,0.5512,0.0000,-0.0420,0.0757,0.0626,0
0.0000,0.0000,-9.8198,0.0010,0.0010,0.0010,0.0000,0.6855,0.0000,-0.0400,0.0758,0.0625,0
0.0000,0.0000,-9.8198,0.0010,0.0010,0.0010,0.0000,0.5682,0.0000,-0.0290,0.0756,0.0628,0
0.0000,0.0000,-9.8198,0.0010,0.0010,0.0010,0.0000,0.4253,0.0000,-0.0200,0.0756,0.0630,0
0.0000,0.0000,-9.8198,0.0010,0.0010,0.0010,0.0000,0.5190,0.0000,-0.0220,0.0754,0.0628,0
0.0000,0.0000,-9.8198,0.0010,0.0010,0.0010,0.0000,0.2059,0.0000,-0.0290,0.0756,0.0628,0
0.0000,0.0000,-9.8198,0.0010,0.0010,0.0010,0.0000,0.7860,0.0000,-0.0400,0.0758,0.0633,0
0.0000,0.0000,-9.8198,0.0010,0.0010,0.0010,0.0000,0.8356,0.0000,-0.0500,0.0763,0.0636,0
0.0000,0.0000,-9.8198,0.0010,0.0010,0.0010,0.0000,0.2151,0.0000,-0.0640,0.0763,0.0636,0
0.0000,0.0000,-9.8198,0.0010,0.0010,0.0010,0.0000,0.7392,0.0000,-0.0760,0.0755,0.0634,0
0.0000,0.0000,-9.8198,0.0010,0.0010,0.0010,0.0000,0.6400,0.0000,-0.0840,0.0752,0.0636,0
0.0000,0.0000,-9.8198,0.0010,0.0010,0.0010,0.0000,0.2847,0.0000,-0.0870,0.0753,0.0637,0
0.0000,0.0000,-9.8198,0.0010,0.0010,0.0010,0.0000,0.2152,0.0100,-0.0940,0.0751,0.0635,0
0.0000,0.0000,-9.8198,0.0010,0.0010,0.0010,0.0000,0.3861,0.0100,-0.0970,0.0750,0.0636,0
0.0000,0.0000,-9.8198,0.0010,0.0010,0.0010,0.0000,0.5795,0.0000,-0.0950,0.0752,0.0639,0
0.0000,0.0000,-9.8198,0.0010,0.0010,0.0010,0.0000,0.1048,0.0000,-0.0980,0.0755,0.0641,0
0.0000,0.0000,-9.8198,0.0010,0.0010,0.0010,0.0000,0.8689,0.0000,-0.1010,0.0756,0.0640,0
0.0000,0.0000,-9.8198,0.0010,0.0010,0.0010,0.0000,0.1183,0.0000,-0.1080,0.0757,0.0638,0
0.0000,0.0000,-9.8198,0.0010,0.0010,0.0010,0.0000,0.0754,0.0100,-0.1160,0.0757,0.0636,0
0.0000,0.0000,-9.8100,0.0010,0.0010,0.0010,0.0000,0.4163,0.0100,-0.1170,0.0758,0.0637,0
0.0000,0.0000,-9.8198,0.0010,0.0010,0.0010,0.0000,0.5595,0.0100,-0.1220,0.0756,0.0634,0
0.0000,0.0000,-9.8198,0.0010,0.0010,0.0010,0.0000,0.6983,0.0100,-0.1300,0.0755,0.0632,0
0.0000,0.0000,-9.8198,0.0010,0.0010,0.0010,0.0000,0.6110,0.0100,-0.1340,0.0755,0.0633,0
0.0000,0.0000,-9.8198,0.0010,0.0010,0.0010,0.0000,0.4871,0.0100,-0.1380,0.0760,0.0636,0
0.0000,0.0000,-9.8198,0.0010,0.0010,0.0010,0.0000,0.7711,0.0100,-0.1410,0.0760,0.0632,0
0.0000,0.0000,-9.8198,0.0010,0.0010,0.0010,0.0000,0.3894,0.0100,-0.1400,0.0758,0.0630,0
0.0000,0.0000,-9.8198,0.0010,0.0010,0.0010,0.0000,0.9006,0.0000,-0.0940,0.0759,0.0629,0
0.0000,0.0000,-9.8198,0.0010,0.0010,0.0010,0.0000,0.6026,0.0000,-0.0420,0.0757,0.0629,0
0.0000,0.0000,-9.8198,0.0010,0.0010,0.0010,0.0000,0.3516,0.0000,-0.0140,0.0754,0.0626,0
0.0000,0.0000,-9.8198,0.0010,0.0010,0.0010,0.0000,0.4285,0.0000,0.0000,0.0752,0.0623,0
0.0000,0.0000,-9.8198,0.0010,0.0010,0.0010,0.0000,0.9452,0.0000,0.0060,0.0755,0.0624,0
0.0000,0.0000,-9.8198,0.0010,0.0010,0.0010,0.0000,0.6979,0.0000,0.0110,0.0758,0.0629,0
0.0000,0.0000,-9.8198,0.0010,0.0010,0.0010,0.0000,0.6663,0.0000,0.0140,0.0758,0.0626,0
0.0000,0.0000,-9.8198,0.0010,0.0010,0.0010,0.0000,0.8509,0.0000,0.0160,0.0756,0.0623,0
0.0000,0.0000,-9.8198,0.0010,0.0010,0.0010,0.0000,0.8096,0.0000,0.0160,0.0756,0.0622,0
0.0000,0.0000,-9.8198,0.0010,0.0010,0.0010,0.0000,0.3939,0.0000,-0.0020,0.0757,0.0623,0
0.0000,0.0000,-9.8100,0.0010,0.0010,0.0010,0.0000,0.6561,0.0000,-0.0090,0.0754,0.0618,0
0.0000,0.0000,-9.8198,0.0010,0.0010,0.0010,0.0000,0.2375,0.0000,-0.0060,0.0751,0.0617,0
0.0000,0.0000,-9.8198,0.0010,0.0010,0.0010,0.0000,0.2981,0.0000,0.0010,0.0758,0.0623,0
0.0000,0.0000,-9.8198,0.0010,0.0010,0.0010,0.0000,0.7041,0.0000,0.0120,0.0765,0.0634,0
0.0000,0.0000,-9.8198,0.0010,0.0010,0.0010,0.0000,0.4953,0.0000,0.0280,0.0786,0.0652,0
0.0000,0.0000,-9.8198,0.0010,0.0010,0.0010,0.0000,0.8635,0.0000,0.0440,0.0807,0.0674,0
0.0000,0.0000,-9.8198,0.0010,0.0010,0.0010,0.0000,0.4361,-0.0100,0.0570,0.0835,0.0707,0
0.0000,0.0000,-9.8198,0.0010,0.0010,0.0010,0.0000,0.3889,-0.0100,0.0620,0.0873,0.0740,0
0.0000,0.0000,-9.8198,0.0010,0.0010,0.0010,0.0000,0.5259,-0.0100,0.0700,0.0912,0.0780,0
0.0000,0.0000,-9.8198,0.0010,0.0010,0.0010,0.0000,0.7486,-0.0100,0.0810,0.0953,0.0820,0
0.0000,0.0000,-9.8198,0.0010,0.0010,0.0010,0.0000,0.3597,-0.0100,0.0880,0.0993,0.0866,0
0.0000,0.0000,-9.8198,0.0010,0.0010,0.0010,0.0000,0.8311,-0.0100,0.0940,0.1035,0.0904,0
0.0000,0.0000,-9.8198,0.0010,0.0010,0.0010,0.0000,0.6703,-0.0100,0.0990,0.1079,0.0951,0
0.0000,0.0000,-9.8198,0.0010,0.0010,0.0010,0.0000,0.7962,-0.0100,0.1040,0.1122,0.0993,0
0.0000,0.0000,-9.8198,0.0010,0.0010,0.0010,0.0000,1.0104,-0.0100,0.1060,0.1166,0.1040,0
0.0000,0.0000,-9.8198,0.0010,0.0010,0.0010,0.0000,0.6895,-0.0100,0.1140,0.1212,0.1083,0
0.2551,0.0000,-9.8198,0.0010,0.0010,0.0010,10.0000,0.5679,-0.0100,0.1180,0.1259,0.1132,0
2.5997,-0.0196,-9.8100,0.0010,0.0010,0.0010,34.0000,0.6718,-0.0100,0.1230,0.1304,0.1174,0
5.7585,0.0000,-9.8198,0.0010,0.0010,0.0010,60.0000,0.3254,-0.0100,0.1260,0.1352,0.1200,0
8.4268,-0.0098,-9.8198,0.0010,0.0010,0.0010,84.0000,1.5921,-0.0200,0.1280,0.1396,0.1188,0
10.7616,-0.0981,-9.8198,0.0010,0.0020,0.0010,100.0000,3.7887,-0.0200,0.1320,0.1438,0.1133,0
10.4378,0.1275,-9.8100,0.0010,0.0030,0.0010,100.0000,5.4724,-0.0200,0.1360,0.1468,0.1219,0
9.1429,0.0392,-9.8100,0.0010,0.0040,0.0010,100.0000,8.3384,-0.0300,0.1400,0.1492,0.1463,2
7.9461,0.0490,-10.5457,0.0010,0.0050,0.0010,100.0000,10.1230,-0.1000,0.1480,0.1515,0.1866,2
6.5825,0.0883,-9.5746,0.0010,0.0070,0.0010,100.0000,12.3786,-0.1600,0.1860,0.1548,0.2582,2
5.5034,-0.0589,-9.7315,0.0010,0.0090,0.0010,100.0000,13.6522,-0.1200,0.2210,0.1583,0.3542,2
4.4243,-0.0687,-9.7511,0.0010,0.0110,0.0010,100.0000,15.3367,-0.1100,0.2570,0.1627,0.4837,2
3.8063,0.1079,-9.7708,0.0010,0.0130,0.0010,100.0000,16.2496,-0.1000,0.2870,0.1668,0.6210,2
3.0215,-0.0392,-9.8885,0.0010,0.0140,0.0010,100.0000,17.4087,-0.1000,0.3160,0.1712,0.7964,2
9.0448,0.0785,-38.0530,-0.0030,1.4010,0.0010,100.0000,18.2410,-2.6100,0.4740,0.1079,8.9995,2
6.9749,0.0000,-23.0241,-0.0470,0.3660,-0.0150,100.0000,19.6431,-9.5400,2.2460,-0.3760,23.7535,2
7.5537,0.0000,0.3826,-0.0080,-0.5490,0.0040,100.0000,20.4203,-9.8000,4.7290,-0.6743,20.9381,2
7.0534,0.0392,-0.9810,0.0040,-0.2920,0.0060,100.0000,21.5144,-7.3700,6.9340,-0.6923,13.7037,2
5.8271,-0.0392,-12.2036,-0.0050,0.1680,-0.0220,100.0000,22.2436,-7.1000,8.5960,-0.5733,13.4808,2
5.1404,0.1373,-15.2545,0.0180,0.2150,-0.0060,100.0000,23.3065,-8.7500,10.6560,-0.4906,17.0376,2
4.9737,0.0392,-10.5261,0.0130,-0.0010,-0.0330,100.0000,23.8487,-9.7300,12.9180,-0.2843,18.3347,2
4.8363,0.1177,-7.8088,0.0200,-0.0480,0.0210,100.0000,24.5248,-9.6000,15.4520,-0.2486,17.3630,2
4.5028,-0.0294,-8.6917,0.0220,-0.0170,-0.0200,100.0000,24.9217,-9.4500,17.7360,-0.0366,16.7065,2
4.0908,0.0490,-10.1632,0.0110,0.0230,0.0200,100.0000,25.3960,-9.6300,20.2200,0.0325,16.9233,2
3.9534,-0.0589,-10.5359,0.0220,0.0410,-0.0060,100.0000,25.6588,-9.8700,22.5750,0.1514,17.2597,2
3.9534,0.1079,-9.2901,0.0150,0.0020,0.0120,100.0000,26.0133,-10.0400,25.1850,0.3058,17.3191,2
3.7572,-0.1079,-9.2116,-0.0070,-0.0190,-0.0190,100.0000,26.2175,-10.1400,27.6090,0.1493,17.3749,2
3.5512,-0.0785,-9.0350,-0.0060,-0.0010,0.0090,100.0000,26.4761,-10.1400,30.2480,-0.0953,17.2119,2
3.4041,-0.0490,-10.0356,-0.0030,0.0220,-0.0140,100.0000,26.6163,-10.2100,32.6730,-0.0183,17.2914,2
3.3060,0.1079,-9.3980,0.0080,-0.0100,-0.0100,100.0000,26.7566,-10.3200,35.3330,0.1386,17.3368,2
3.3452,-0.1275,-9.1331,-0.0110,-0.0150,-0.0220,100.0000,26.8976,-10.2900,37.7990,-0.0099,17.1694,2
3.1784,0.1275,-9.3685,0.0280,0.0010,0.0140,100.0000,27.0056,-10.3200,40.4720,0.1975,17.2096,2
3.0607,0.1373,-9.7609,0.0090,0.0170,0.0170,100.0000,27.0928,-10.3400,42.9420,0.4624,17.2558,2
3.0411,-0.0294,-9.0742,-0.0060,0.0040,0.0040,100.0000,27.1562,-10.3700,45.6320,0.3134,17.2348,2
3.1000,0.0785,-9.6825,-0.0080,0.0010,0.0310,100.0000,27.1960,-10.4100,48.1150,0.1186,17.3221,2
3.0607,-0.0883,-9.5157,-0.0010,0.0000,-0.0080,100.0000,27.2391,-10.4300,50.8210,0.0815,17.3300,2
3.0607,-0.2649,-8.3777,-0.0240,-0.0480,-0.0160,100.0000,27.2631,-10.3500,53.3040,-0.1976,17.0261,2
3.1882,0.2551,-7.7205,0.0290,-0.0730,0.0230,100.0000,27.3403,-10.0800,55.9440,-0.0345,16.3580,2
3.0215,0.2551,-6.9160,0.0170,-0.0760,-0.0250,100.0000,27.3877,-9.5400,58.2770,0.4044,15.0954,2
3.0411,-0.1766,-7.6027,-0.0130,-0.0640,-0.0110,100.0000,27.5041,-9.0300,60.6590,0.0819,14.0164,2
2.3152,-0.8142,-6.5727,0.4830,-0.1230,0.1040,85.0000,27.5438,-8.5800,62.7560,1.4265,12.9943,2
-0.1570,1.6775,-3.2471,1.5290,-0.2720,0.0410,59.0000,27.4716,-7.3100,64.8280,19.4416,9.9338,2
-2.6879,0.7161,-1.0693,1.5720,-0.2520,0.0890,35.0000,27.1688,-5.1100,66.2990,40.7984,6.1610,3
-5.6211,-0.0785,-4.4832,0.9010,0.0330,0.0770,10.0000,26.1156,-2.7600,67.2700,60.5115,3.9030,3
-5.2876,-2.1582,-9.0742,-0.1070,0.2340,0.1650,31.0000,25.1451,-1.3000,67.6840,64.9747,3.4452,3
-2.0895,-2.8449,-8.4464,-0.3960,0.1060,0.2730,53.0000,23.7986,-0.4300,67.8450,60.1278,1.6572,3
-1.0889,-2.5212,-5.8664,-0.1800,0.0300,0.3010,39.0000,23.2465,0.5400,67.7930,56.0003,-1.5470,3
-2.3740,-2.0503,-12.6058,0.0460,0.3670,0.2700,37.0000,22.7677,1.2800,67.4980,55.2210,-3.3237,1
-1.9816,-1.8835,-15.8824,0.0680,0.4370,0.2510,45.0000,22.5435,1.1700,67.1750,55.8199,-2.8177,1
-1.0202,-1.9620,-13.3416,0.0140,0.3260,0.2430,49.0000,22.2683,1.1800,66.8550,56.1098,-2.8562,1
-0.6671,-2.0797,-14.1362,0.0020,0.3840,0.2550,50.0000,22.1814,1.3000,66.5300,55.7112,-3.0596,1
-0.5886,-1.9718,-16.0492,0.0350,0.4440,0.2640,51.0000,22.2619,1.1400,66.1910,55.5762,-2.6801,1
-0.4709,-2.0503,-16.5397,0.0370,0.4580,0.2540,54.0000,22.3591,0.8700,65.9390,55.8868,-2.0052,1
-0.2649,-2.0601,-16.0590,0.0420,0.4390,0.2570,55.0000,22.4962,0.6200,65.7500,56.2017,-1.4265,3
-0.2943,-2.0699,-15.8431,0.0440,0.4360,0.2460,56.0000,22.6090,0.4700,65.6300,56.6017,-1.1104,3
-0.2551,-2.0209,-16.1080,-0.0030,0.4390,0.2550,56.0000,22.7104,0.2800,65.5460,56.5974,-0.6660,3
-0.4022,-2.1484,-15.9118,-0.0290,0.4190,0.2580,54.0000,22.8222,0.0800,65.5260,56.1835,-0.2111,3
-0.5592,-2.1778,-14.2735,-0.0790,0.3440,0.2440,53.0000,22.9076,-0.0600,65.5650,55.2534,-0.0005,3
-0.8437,-2.0601,-12.7628,-0.0950,0.2710,0.2570,49.0000,22.9257,-0.0200,65.6130,53.9110,-0.3758,3
-1.1674,-2.1190,-11.4090,-0.1250,0.2120,0.2400,47.0000,22.8741,0.1900,65.6260,52.1582,-1.0634,3
-1.3440,-1.9914,-11.0755,-0.1420,0.2050,0.2420,44.0000,22.7781,0.4600,65.5690,50.1914,-1.9471,3
-1.5009,-1.9718,-11.2325,-0.1290,0.1960,0.2290,44.0000,22.6796,0.6900,65.4310,48.0101,-2.6686,3
-1.5009,-2.0209,-11.0755,-0.1420,0.1820,0.2260,43.0000,22.5829,0.8600,65.2490,45.9413,-3.2293,1
-1.4715,-1.9031,-11.2226,-0.1510,0.1790,0.2170,43.0000,22.4172,0.9700,65.0150,43.4430,-3.6629,1
-1.4224,-1.7756,-11.3207,-0.1670,0.1620,0.2120,43.0000,22.3463,0.9700,64.7920,40.8892,-3.9186,1
-1.3145,-1.7266,-11.5366,-0.1880,0.1630,0.1930,43.0000,22.2013,0.9000,64.5620,37.8325,-3.8914,1
-1.2164,-1.6481,-11.0166,-0.2000,0.1150,0.1870,44.0000,22.0965,0.7700,64.3790,34.8152,-3.8591,3
-1.0987,-1.5009,-10.6144,-0.2010,0.0930,0.1780,44.0000,21.9992,0.7300,64.1930,31.4695,-4.0393,3
-1.0399,-1.3734,-10.3299,-0.1810,0.0750,0.1620,45.0000,21.9542,0.7200,64.0230,28.6114,-4.2787,3
-0.9516,-1.2262,-10.9676,-0.1760,0.0990,0.1480,45.0000,21.8870,0.6500,63.8300,25.7715,-4.2169,3
-0.7750,-1.1968,-11.2815,-0.1670,0.0910,0.1270,47.0000,21.8449,0.4300,63.6880,23.2920,-3.7888,2
-0.6573,-1.0791,-11.0853,-0.1710,0.0770,0.1210,48.0000,21.8199,0.1600,63.6010,20.6310,-3.2947,2
-0.5101,-0.9516,-10.3986,-0.1590,0.0400,0.1050,48.0000,21.8711,0.0000,63.5810,18.2828,-3.0797,2
-0.5199,-0.8829,-10.0651,-0.1380,0.0260,0.1000,48.0000,21.9249,-0.0500,63.5830,15.9132,-3.0774,2
-0.5101,-0.6769,-10.4575,-0.0990,0.0440,0.0850,48.0000,21.9249,-0.1500,63.5960,14.2695,-2.8672,2
-0.4316,-0.5984,-10.5850,-0.0970,0.0410,0.0810,49.0000,21.9397,-0.3200,63.6450,12.7222,-2.4763,2
-0.3826,-0.6180,-10.0062,-0.0980,0.0200,0.0700,49.0000,21.9386,-0.4100,63.7260,11.2655,-2.3698,2
-0.3139,-0.4709,-10.1632,-0.0880,0.0270,0.0590,50.0000,21.9523,-0.4500,63.8190,9.8050,-2.2760,2
-0.2943,-0.3924,-10.2711,-0.0640,0.0260,0.0560,50.0000,21.9827,-0.5400,63.9150,8.6743,-2.0992,2
-0.2747,-0.4022,-10.5359,-0.0770,0.0180,0.0470,50.0000,22.0289,-0.7100,64.0540,7.6709,-1.6869,2
-0.2354,-0.4611,-9.8885,-0.0610,0.0070,0.0420,50.0000,22.0307,-0.7500,64.2140,6.7301,-1.6755,2
-0.2747,-0.1962,-9.7511,-0.0360,0.0020,0.0500,50.0000,22.0040,-0.7600,64.4010,5.8547,-1.6779,2
-0.2943,-0.2551,-10.0356,-0.0370,0.0150,0.0220,50.0000,22.0054,-0.7500,64.5740,5.2764,-1.6498,2
-0.2452,-0.2158,-9.8689,-0.0390,-0.0050,0.0420,50.0000,21.9807,-0.8100,64.7690,4.6593,-1.5260,2
-0.1766,-0.1177,-9.6432,-0.0330,-0.0030,0.0290,50.0000,21.9868,-0.7700,64.9520,4.1405,-1.6367,2
-0.3041,-0.1570,-10.2613,-0.0300,0.0310,0.0160,50.0000,21.9740,-0.7900,65.1440,3.6768,-1.5002,2
-0.2452,-0.1668,-10.3397,-0.0400,0.0210,0.0320,50.0000,22.0211,-0.9100,65.3350,3.1554,-1.2079,2
-0.2256,-0.1766,-9.7021,-0.0300,-0.0070,0.0110,50.0000,22.0125,-0.9500,65.5710,2.7151,-1.2355,2
-0.2551,-0.0490,-9.1723,-0.0110,-0.0230,0.0170,50.0000,22.0393,-0.8400,65.7800,2.3685,-1.5655,2
-0.3728,-0.0196,-10.0160,-0.0060,0.0170,0.0190,49.0000,21.9836,-0.7700,65.9770,2.1245,-1.6067,2
-0.2649,-0.0687,-10.4771,-0.0310,0.0210,0.0080,50.0000,21.9613,-0.9000,66.1690,1.8495,-1.2002,2
-0.2452,-0.0883,-9.2214,-0.0190,-0.0300,0.0030,50.0000,21.9592,-0.9300,66.4110,1.4621,-1.2667,2
-0.2354,-0.0490,-9.3293,-0.0040,-0.0100,0.0130,50.0000,21.9544,-0.7700,66.6070,1.1986,-1.6099,2
-0.2747,-0.0098,-10.2613,-0.0010,0.0300,0.0070,50.0000,21.9773,-0.7500,66.7900,1.2025,-1.5541,2
-0.2354,-0.0687,-10.1828,-0.0160,0.0110,0.0000,50.0000,21.9886,-0.8700,66.9780,1.0258,-1.2784,2
-0.2845,-0.0490,-9.3489,-0.0030,-0.0250,0.0150,50.0000,21.9313,-0.8500,67.1960,0.8265,-1.4254,2
-0.2551,-0.0196,-9.2508,-0.0060,-0.0150,0.0010,50.0000,21.9177,-0.6900,67.3690,0.7888,-1.8404,2
-0.3237,-0.0294,-10.7910,-0.0120,0.0490,0.0080,50.0000,21.9174,-0.7500,67.5330,0.6819,-1.5237,2
-0.2158,-0.0196,-9.9179,-0.0050,-0.0020,0.0000,50.0000,21.9241,-0.9100,67.7280,0.6029,-1.2303,2
-0.2256,-0.0785,-9.0350,-0.0080,-0.0350,0.0100,50.0000,21.9177,-0.7800,67.9430,0.4912,-1.6069,2
-0.2551,0.0392,-9.6530,0.0050,0.0050,0.0040,49.0000,21.9375,-0.6400,68.1020,0.3661,-1.8330,2
-0.2943,-0.0687,-10.2024,0.0000,0.0080,0.0020,50.0000,21.9500,-0.7500,68.2770,0.3834,-1.5121,2
-0.2452,0.0196,-9.6825,0.0000,-0.0040,0.0110,50.0000,21.9707,-0.7600,68.4610,0.3937,-1.5547,2
-0.2845,0.0000,-9.6236,-0.0050,0.0010,-0.0100,49.0000,21.9535,-0.7200,68.6470,0.4200,-1.6852,2
-0.3041,-0.0981,-10.0062,-0.0170,0.0160,0.0070,49.0000,21.9582,-0.7000,68.8110,0.2738,-1.6939,2
-0.3237,-0.0098,-9.9179,0.0000,0.0000,0.0060,49.0000,21.9606,-0.7500,68.9980,0.1270,-1.5995,2
-0.2551,-0.0392,-9.6432,0.0130,-0.0040,-0.0010,49.0000,21.9270,-0.7200,69.1700,0.1470,-1.6881,2
-0.3728,-0.0196,-9.8198,-0.0020,0.0060,0.0000,49.0000,21.9182,-0.7100,69.3480,0.1992,-1.6591,2
-0.2354,-0.0098,-9.4568,0.0030,-0.0150,0.0010,50.0000,21.8711,-0.6700,69.5090,0.1498,-1.7759,2
-0.2452,0.0000,-9.7708,0.0070,0.0050,0.0070,49.0000,21.8801,-0.6300,69.6720,0.1748,-1.7978,2
-0.2551,-0.0589,-9.9375,0.0150,0.0130,0.0040,50.0000,21.9093,-0.6300,69.8180,0.3172,-1.7818,2
-0.2354,-0.0687,-9.7413,-0.0070,-0.0020,-0.0010,50.0000,21.8760,-0.6500,69.9760,0.2893,-1.7939,2
-0.2256,-0.0098,-9.9179,-0.0120,0.0080,0.0050,50.0000,21.8969,-0.6500,70.1260,0.1935,-1.7941,2
-0.2452,0.0490,-9.9179,0.0110,0.0110,0.0030,50.0000,21.9056,-0.6700,70.2930,0.1222,-1.7826,2
-0.3041,0.0000,-9.8885,0.0010,0.0000,-0.0010,50.0000,21.9184,-0.7000,70.4540,0.1854,-1.6694,2
-0.2452,0.0490,-9.2901,0.0020,-0.0380,0.0000,50.0000,21.9745,-0.6700,70.6340,0.0746,-1.7959,2
-0.3335,-0.0490,-9.4372,-0.0010,-0.0140,0.0050,49.0000,21.9801,-0.5500,70.7800,-0.0132,-2.0514,2
-0.3826,0.0000,-10.3888,-0.0020,0.0270,-0.0010,49.0000,21.9878,-0.5700,70.9220,-0.0701,-1.8872,2
-0.3532,0.0294,-10.0062,0.0100,0.0070,0.0090,49.0000,21.9805,-0.6700,71.0720,-0.0274,-1.6481,2
-0.2845,0.0392,-9.3980,0.0120,-0.0250,-0.0010,49.0000,21.9299,-0.6600,71.2480,0.0624,-1.7884,2
-0.3237,-0.0589,-9.5844,-0.0020,-0.0030,-0.0090,49.0000,21.9552,-0.5400,71.3890,0.0733,-2.0602,2
-0.3826,-0.0294,-10.3103,0.0020,0.0340,0.0170,49.0000,21.9807,-0.5500,71.5240,0.0142,-1.9805,2
-0.2943,0.0589,-10.2024,0.0060,0.0090,0.0000,49.0000,21.9715,-0.7100,71.6730,0.0653,-1.6388,2
-0.2845,-0.0294,-9.0546,0.0180,-0.0270,0.0060,49.0000,21.9706,-0.6300,71.8470,0.1977,-1.9115,2
-0.3826,-0.0589,-9.8100,-0.0030,0.0040,0.0060,49.0000,21.9507,-0.5600,71.9810,0.1769,-1.9546,2
-0.3139,0.0294,-9.9179,0.0000,0.0000,0.0010,49.0000,21.9395,-0.5800,72.1240,0.0498,-1.8985,2
-0.2943,-0.0098,-9.7806,0.0060,0.0020,0.0060,50.0000,21.9735,-0.5700,72.2600,0.0514,-1.9204,2
-0.2747,0.0981,-9.8100,0.0030,0.0110,0.0050,49.0000,21.9574,-0.5400,72.4020,0.1351,-1.9861,2
-0.3433,-0.0098,-10.0062,0.0010,0.0130,0.0000,49.0000,21.9633,-0.5800,72.5340,0.1185,-1.9069,2
-0.2551,0.0000,-9.7806,-0.0030,-0.0120,-0.0020,50.0000,21.9928,-0.6400,72.6880,0.1684,-1.8274,2
-0.3237,-0.0196,-10.0062,0.0010,0.0100,0.0100,49.0000,22.0033,-0.6300,72.8340,0.0505,-1.8377,2
-0.2943,0.0589,-9.6923,0.0070,-0.0060,0.0130,49.0000,22.0065,-0.6000,72.9930,0.1045,-1.9140,2
-0.3433,0.0294,-9.8492,-0.0030,-0.0010,-0.0030,49.0000,22.0109,-0.6100,73.1390,0.1358,-1.8368,2
-0.3728,-0.0490,-9.7806,-0.0080,0.0000,0.0030,49.0000,21.9527,-0.6000,73.2980,0.0930,-1.8612,2
-0.3630,0.0000,-9.4078,-0.0100,-0.0180,0.0080,49.0000,21.9400,-0.5200,73.4310,-0.0770,-2.0612,2
-0.3041,-0.0098,-10.1632,-0.0030,0.0250,0.0030,50.0000,21.9137,-0.5400,73.5680,-0.1371,-1.9311,2
-0.2747,-0.0883,-10.0651,0.0160,0.0110,-0.0040,50.0000,21.9394,-0.6200,73.7150,-0.1351,-1.7717,2
-0.3041,0.0000,-9.4372,0.0090,-0.0190,0.0030,50.0000,21.9309,-0.6000,73.8830,0.0236,-1.9474,2
-0.3041,0.0196,-9.6923,0.0090,0.0010,-0.0020,50.0000,21.9953,-0.5300,74.0180,0.0721,-2.1170,2
-0.3532,-0.0294,-9.7904,0.0060,0.0060,-0.0020,49.0000,21.9838,-0.5500,74.1600,0.1510,-2.0445,2
-0.3728,-0.0785,-9.9866,-0.0020,0.0110,0.0130,49.0000,21.9822,-0.6100,74.2960,0.0555,-1.8467,2
-0.3433,0.0000,-9.8492,-0.0050,0.0000,0.0090,49.0000,21.9850,-0.6300,74.4570,0.0340,-1.7841,2
-0.2747,-0.0490,-9.1331,-0.0040,-0.0300,0.0000,49.0000,21.9560,-0.5300,74.6010,0.0470,-2.1098,2
-0.3139,0.0687,-9.7609,0.0110,0.0100,-0.0060,49.0000,21.9937,-0.4300,74.7200,0.1185,-2.2660,2
-0.3630,0.0490,-10.5261,0.0050,0.0310,0.0090,49.0000,21.9808,-0.5200,74.8340,0.1918,-1.9624,2
-0.2649,0.0098,-9.8787,-0.0060,0.0020,0.0020,50.0000,21.9691,-0.6500,74.9950,0.1571,-1.7818,2
-0.2551,-0.0196,-9.4078,-0.0010,-0.0150,0.0090,49.0000,22.0207,-0.5800,75.1480,0.0719,-2.0220,2
-0.4022,0.0392,-9.8296,0.0000,0.0080,0.0000,49.0000,21.9964,-0.5100,75.2870,0.0160,-2.1350,2
-0.4022,0.0785,-10.0651,0.0030,0.0110,0.0020,49.0000,21.9830,-0.5700,75.4160,0.0117,-1.9351,2
-0.3335,-0.0294,-9.8689,0.0020,0.0030,0.0100,49.0000,21.9465,-0.5900,75.5690,-0.0931,-1.8748,2
-0.2747,0.0000,-9.4863,0.0060,-0.0160,-0.0030,50.0000,21.9524,-0.5700,75.7100,-0.0938,-1.9869,2
-0.3924,0.0000,-9.9473,-0.0020,0.0060,0.0130,49.0000,22.0029,-0.4900,75.8450,0.0525,-2.0978,2
-0.3335,0.0000,-9.6530,0.0120,0.0020,0.0030,49.0000,22.0143,-0.4800,75.9640,0.0768,-2.1497,2
-0.3041,0.0098,-9.9670,-0.0040,0.0110,-0.0040,49.0000,22.0141,-0.5000,76.0880,0.0787,-2.0890,2
-0.2845,0.0589,-10.0552,-0.0020,0.0130,0.0020,49.0000,21.9967,-0.5800,76.2170,0.0300,-1.9160,2
-0.3924,0.0687,-9.7708,0.0060,0.0040,0.0060,49.0000,21.9912,-0.5900,76.3710,-0.1202,-1.9332,2
-0.3826,0.0196,-9.6334,-0.0040,0.0000,0.0000,49.0000,21.9751,-0.5800,76.5100,-0.0802,-1.9373,2
-0.2747,0.0098,-9.6530,-0.0050,-0.0120,0.0070,49.0000,21.9760,-0.5400,76.6490,-0.2928,-2.0305,2
-0.2452,0.0392,-9.6236,0.0080,-0.0080,0.0110,50.0000,21.9692,-0.5000,76.7710,-0.2287,-2.1151,2
-0.2845,-0.0098,-10.0454,0.0180,0.0100,-0.0160,49.0000,22.0111,-0.5300,76.9050,0.0364,-2.0082,2
-0.3237,0.0000,-10.1337,-0.0050,0.0130,0.0000,49.0000,22.0205,-0.5700,77.0440,-0.0187,-1.8696,2
-0.3826,0.0392,-9.8590,0.0050,0.0010,0.0020,49.0000,22.0081,-0.6100,77.2050,-0.0370,-1.8582,2
-0.3335,0.0098,-9.3391,-0.0090,-0.0070,0.0040,49.0000,21.9936,-0.5200,77.3450,-0.0677,-2.1569,2
-0.2845,0.0000,-10.1730,0.0060,0.0190,0.0060,49.0000,21.9950,-0.5200,77.4780,-0.0198,-2.1046,2
-0.3237,0.0000,-10.0258,-0.0110,-0.0020,0.0010,49.0000,21.9806,-0.6200,77.6190,-0.0349,-1.8766,2
-0.3335,0.0392,-9.9375,-0.0030,0.0010,0.0080,49.0000,21.9526,-0.6100,77.7800,-0.1507,-1.8947,2
-0.3630,0.0000,-9.5942,-0.0030,-0.0060,-0.0020,49.0000,21.9746,-0.5800,77.9230,-0.1915,-1.9621,2
-0.2747,-0.0490,-9.5059,0.0150,-0.0030,0.0100,49.0000,21.9859,-0.5000,78.0660,-0.1059,-2.1537,2
-0.3630,0.0392,-9.9768,0.0080,0.0100,0.0040,49.0000,21.9710,-0.4900,78.1790,-0.0787,-2.1122,2
-0.3433,-0.0490,-10.0356,-0.0090,0.0050,-0.0120,49.0000,22.0257,-0.5800,78.3140,-0.0031,-1.9091,2
-0.3237,-0.0098,-9.6628,0.0000,-0.0020,0.0060,49.0000,22.0282,-0.5700,78.4550,-0.1328,-2.0233,2
-0.3532,-0.0098,-9.7511,0.0160,0.0120,0.0070,49.0000,22.0036,-0.5300,78.5980,-0.0680,-2.1146,2
-0.3433,0.0392,-10.0454,0.0260,0.0100,0.0000,49.0000,22.0099,-0.5600,78.7300,0.1626,-2.0037,2
-0.4611,-0.0196,-9.7315,-0.0070,-0.0060,-0.0090,49.0000,21.9811,-0.6000,78.8830,0.1882,-1.9009,2
-0.2943,-0.0294,-9.3489,-0.0090,-0.0220,0.0080,49.0000,21.9867,-0.5200,79.0180,-0.0622,-2.1159,2
-0.4022,-0.0589,-9.8492,0.0170,0.0140,-0.0010,49.0000,21.9751,-0.4300,79.1390,-0.0921,-2.2434,2
-0.3728,0.0589,-10.4084,0.0130,0.0310,0.0070,49.0000,21.9411,-0.5300,79.2560,0.1872,-1.9271,2
-0.3041,-0.0392,-9.8198,0.0160,-0.0020,0.0110,50.0000,21.9432,-0.6300,79.4110,0.3446,-1.7662,2
-0.1864,-0.0589,-8.9761,-0.0150,-0.0270,-0.0030,49.0000,21.9423,-0.4900,79.5500,0.2879,-2.2118,2
-0.3335,0.0098,-9.9179,-0.0010,0.0070,0.0100,49.0000,21.9829,-0.4200,79.6610,0.0333,-2.3346,2
-0.3335,0.0392,-10.5163,-0.0080,0.0380,0.0120,50.0000,21.9760,-0.5000,79.7650,0.0140,-2.0843,2
-0.3335,0.0000,-10.2318,0.0080,0.0070,0.0000,50.0000,21.9952,-0.6800,79.9200,-0.0449,-1.6727,2
-0.3139,-0.0196,-9.0252,0.0050,-0.0360,-0.0010,49.0000,21.9759,-0.5900,80.0740,0.0386,-1.9998,2
-0.3433,-0.0098,-9.3587,0.0010,-0.0120,0.0040,49.0000,21.9924,-0.4200,80.1990,0.1927,-2.3369,2
-0.3826,0.0098,-10.6144,0.0050,0.0360,0.0000,49.0000,22.0105,-0.5200,80.3020,0.1271,-1.9559,2
-0.2943,0.0000,-9.7511,-0.0060,-0.0100,0.0070,50.0000,22.0296,-0.6500,80.4610,0.1494,-1.7240,2
-0.2845,0.0589,-9.2214,0.0020,-0.0280,0.0060,49.0000,22.0194,-0.5600,80.6110,0.0585,-2.0653,2
-0.3728,-0.0785,-9.8492,0.0000,0.0220,0.0030,49.0000,22.0178,-0.4200,80.7320,0.0291,-2.3438,2
-0.3433,0.0196,-10.6242,0.0000,0.0340,0.0070,49.0000,22.0237,-0.6000,80.8490,-0.0001,-1.8453,2
-0.2845,0.0000,-9.6236,0.0040,-0.0160,0.0000,49.0000,21.9983,-0.6700,81.0210,-0.0121,-1.7737,2
-0.2649,-0.0392,-9.1625,0.0040,-0.0190,0.0090,49.0000,22.0102,-0.5200,81.1660,0.0783,-2.1525,2
-0.4218,0.0687,-9.8590,0.0000,0.0160,0.0080,49.0000,22.0259,-0.4500,81.2880,0.1439,-2.2140,2
-0.3826,-0.0687,-10.2907,0.0020,0.0210,-0.0050,49.0000,22.0096,-0.5600,81.4040,0.1529,-1.8739,2
-0.3237,-0.0294,-9.6236,0.0060,-0.0140,0.0060,49.0000,21.9765,-0.5900,81.5550,0.0819,-1.8753,2
-0.3041,-0.0392,-9.4470,0.0020,-0.0120,0.0150,50.0000,21.9763,-0.4900,81.6820,0.0906,-2.1459,2
-0.3433,-0.0392,-9.9375,0.0070,0.0080,-0.0120,50.0000,21.9994,-0.4500,81.8010,0.0663,-2.2129,2
-0.3826,0.0000,-10.4869,0.0000,0.0270,0.0030,50.0000,22.0202,-0.5600,81.9190,0.0800,-1.9316,2
-0.3139,0.0196,-9.8296,0.0090,0.0000,-0.0020,50.0000,22.0068,-0.6400,82.0810,0.1667,-1.7874,2
-0.3335,-0.0098,-9.5255,-0.0010,-0.0030,0.0050,49.0000,22.0145,-0.6000,82.2390,0.1188,-1.8916,2
-0.3728,0.0294,-9.2606,-0.0030,-0.0190,0.0050,49.0000,21.9945,-0.4900,82.3910,0.0804,-2.1930,2
-0.3630,-0.0490,-10.3103,0.0080,0.0280,0.0000,49.0000,21.9845,-0.5100,82.5080,0.0535,-2.0145,2
-0.3532,0.0098,-9.9375,0.0040,0.0040,0.0030,49.0000,21.9618,-0.6000,82.6590,-0.0742,-1.8284,2
-0.3433,-0.0589,-9.2901,0.0000,-0.0190,-0.0050,49.0000,21.9350,-0.5500,82.8060,-0.0121,-2.0475,2
-0.2845,-0.0589,-9.5059,0.0080,0.0020,0.0090,50.0000,21.9810,-0.4400,82.9360,0.0014,-2.3174,2
-0.3433,0.0000,-10.2122,0.0030,0.0230,-0.0030,49.0000,21.9946,-0.5000,83.0490,0.0767,-2.1203,2
-0.4120,-0.0589,-10.2416,0.0140,0.0180,0.0000,49.0000,21.9955,-0.6200,83.2030,0.0900,-1.8423,2
-0.4120,0.0392,-9.2508,0.0040,-0.0250,0.0110,49.0000,22.0116,-0.5800,83.3590,0.2212,-2.0519,2
-0.3532,-0.0785,-9.7609,0.0040,0.0050,-0.0070,49.0000,22.0217,-0.4900,83.4950,0.2742,-2.1823,2
-0.3924,0.0000,-9.8983,-0.0040,0.0100,0.0040,49.0000,21.9884,-0.5100,83.6180,0.2031,-2.0979,2
-0.3532,-0.0294,-9.9081,0.0040,-0.0100,-0.0060,49.0000,22.0163,-0.5700,83.7620,0.1902,-1.9437,2
-0.3728,-0.0098,-9.6628,-0.0110,0.0000,0.0070,49.0000,21.9942,-0.5300,83.8970,0.0992,-2.0755,2
-0.4316,0.0196,-9.6923,0.0250,0.0000,0.0050,49.0000,22.0251,-0.5000,84.0310,0.2609,-2.1680,2
-0.4120,0.0196,-9.9179,0.0020,0.0060,0.0030,49.0000,22.0148,-0.5000,84.1510,0.3810,-2.1678,2
-0.3924,-0.0589,-10.0945,-0.0140,0.0170,0.0030,49.0000,22.0055,-0.5600,84.2880,0.2415,-2.0199,2
-0.3433,0.0000,-9.6334,-0.0040,0.0010,0.0050,49.0000,21.9617,-0.5500,84.4220,0.0391,-2.0519,2
-0.3630,-0.0196,-9.8296,0.0070,0.0070,0.0000,49.0000,21.9736,-0.5200,84.5580,0.0430,-2.0630,2
-0.3433,-0.0392,-9.4765,0.0120,-0.0050,-0.0010,49.0000,21.9772,-0.5100,84.6850,0.1289,-2.1303,2
-0.3139,0.0785,-9.7904,0.0070,0.0020,0.0100,49.0000,21.9524,-0.4700,84.8080,0.1415,-2.1758,2
-0.3826,0.0000,-10.1043,-0.0020,0.0120,0.0010,49.0000,21.9568,-0.5200,84.9270,0.2067,-2.0115,2
-0.3532,-0.0589,-9.7315,-0.0030,0.0020,0.0010,50.0000,21.9827,-0.5200,85.0700,0.1214,-2.0576,2
-0.3041,-0.0098,-9.8590,0.0020,-0.0060,-0.0010,49.0000,22.0176,-0.5700,85.2090,0.1600,-1.9957,2
-0.2943,-0.0196,-9.7511,-0.0090,0.0000,0.0050,49.0000,22.0238,-0.5700,85.3590,0.0456,-2.0176,2
-0.3630,0.0294,-9.8689,0.0010,0.0030,0.0020,49.0000,22.0356,-0.5800,85.4940,-0.0235,-1.9802,2
-0.3630,-0.0392,-9.6040,0.0220,-0.0050,-0.0040,49.0000,21.9822,-0.5500,85.6400,0.1081,-2.0580,2
-0.3826,-0.0490,-9.7806,0.0020,0.0060,0.0080,49.0000,21.9556,-0.5100,85.7670,0.1695,-2.1189,2
-0.3826,0.0000,-9.8590,0.0020,0.0080,0.0050,49.0000,21.9324,-0.5000,85.9040,0.1557,-2.1113,2
-0.4120,0.0000,-10.0454,0.0040,0.0150,-0.0050,49.0000,21.9548,-0.5400,86.0300,0.1842,-1.9745,2
-0.3237,-0.0490,-9.7413,0.0070,0.0050,0.0000,49.0000,21.9754,-0.5500,86.1740,0.2017,-1.9829,2
-0.3237,-0.0490,-9.7511,0.0000,0.0040,-0.0050,49.0000,21.9750,-0.5300,86.3020,0.1956,-2.0797,2
-0.3335,0.0000,-9.6530,0.0060,-0.0030,-0.0020,49.0000,21.9620,-0.5100,86.4370,0.1846,-2.1669,2
-0.3532,-0.1079,-10.0945,-0.0060,0.0140,0.0030,49.0000,21.9709,-0.5100,86.5570,0.2064,-2.1105,2
-0.3630,0.0196,-10.0749,0.0030,0.0090,0.0080,50.0000,21.9540,-0.6000,86.7000,0.1277,-1.8749,2
-0.2551,-0.0294,-9.4470,0.0090,-0.0130,0.0060,49.0000,21.9905,-0.5700,86.8450,0.2252,-1.9925,2
-0.3630,-0.0883,-9.4765,-0.0050,-0.0030,0.0030,49.0000,21.9954,-0.4500,86.9750,0.2329,-2.2662,2
-0.4120,0.0392,-10.3397,0.0050,0.0310,0.0100,49.0000,21.9776,-0.4700,87.0790,0.1436,-2.0881,2
-0.3139,-0.0294,-10.1043,0.0060,0.0070,-0.0020,50.0000,22.0217,-0.6100,87.2250,0.1811,-1.7754,2
-0.2943,-0.0098,-9.2901,-0.0020,-0.0240,-0.0050,49.0000,22.0107,-0.5800,87.3740,0.1299,-1.9786,2
-0.3532,-0.0098,-9.5844,-0.0010,-0.0030,0.0060,49.0000,21.9771,-0.4900,87.5150,0.0468,-2.1918,2
-0.3433,0.0294,-10.1730,-0.0040,0.0200,0.0060,49.0000,22.0165,-0.5100,87.6310,0.0193,-2.1005,2
-0.3728,0.0196,-9.9866,0.0000,0.0120,0.0030,49.0000,21.9869,-0.5800,87.7770,0.0829,-1.9469,2
-0.3335,-0.0981,-9.7315,0.0030,-0.0040,0.0020,49.0000,22.0082,-0.6000,87.9260,0.1460,-1.9183,2
-0.2845,-0.0196,-9.2606,-0.0030,-0.0220,0.0000,49.0000,22.0247,-0.5100,88.0730,0.1381,-2.1636,2
-0.3728,0.0000,-9.8100,0.0050,0.0100,0.0130,49.0000,22.0055,-0.4600,88.1860,0.1212,-2.1976,2
-0.3532,-0.0392,-10.1141,-0.0020,0.0200,-0.0040,49.0000,22.0179,-0.5100,88.3110,0.0473,-2.0302,2
-0.3041,0.0000,-9.6727,0.0130,0.0000,0.0060,49.0000,21.9798,-0.5500,88.4450,0.1213,-2.0116,2
-0.2943,-0.0098,-9.7413,0.0140,-0.0100,0.0030,49.0000,22.0227,-0.5500,88.5940,0.2684,-2.0392,2
-0.3728,-0.0098,-9.7904,-0.0010,0.0120,0.0100,49.0000,21.9758,-0.5100,88.7250,0.1502,-2.1525,2
-0.3826,0.0294,-10.1239,-0.0110,0.0000,0.0040,49.0000,22.0053,-0.6000,88.8730,0.0130,-1.9080,2
-0.2845,0.0000,-9.5059,0.0000,-0.0170,0.0050,49.0000,22.0056,-0.5600,89.0210,-0.0605,-2.0621,2
-0.3924,0.0196,-9.6334,0.0090,-0.0050,-0.0010,49.0000,22.0233,-0.4700,89.1550,0.0486,-2.2121,2
-0.3924,0.0000,-10.1239,-0.0030,0.0320,0.0030,49.0000,22.0245,-0.4700,89.2650,0.1219,-2.1283,2
-0.3728,0.0098,-10.0258,0.0010,-0.0010,0.0000,49.0000,21.9569,-0.6100,89.4060,0.0998,-1.8182,2
-0.3433,-0.0392,-9.4078,-0.0090,-0.0220,0.0070,49.0000,21.9832,-0.5600,89.5560,-0.0457,-2.0385,2
-0.3532,-0.0196,-9.6334,-0.0040,0.0050,-0.0020,49.0000,22.0032,-0.4400,89.6860,-0.1463,-2.3212,2
-0.3630,-0.0687,-10.4476,0.0070,0.0280,-0.0080,49.0000,21.9756,-0.5300,89.7980,-0.0148,-2.0384,2
-0.3826,0.0000,-9.8983,0.0080,0.0010,0.0050,49.0000,21.9710,-0.6400,89.9600,0.1101,-1.8424,2
-0.2747,-0.0883,-9.2704,0.0000,-0.0270,-0.0070,49.0000,21.9665,-0.5900,90.1140,0.0884,-2.0342,2
-0.4022,-0.0785,-9.4666,0.0060,-0.0020,0.0150,49.0000,21.9855,-0.4200,90.2460,0.0770,-2.3744,2
-0.3433,0.0294,-10.3986,-0.0040,0.0220,0.0090,49.0000,21.9938,-0.4800,90.3490,0.1620,-2.1096,2
-0.3826,-0.0392,-10.1141,0.0060,0.0060,0.0090,49.0000,22.0158,-0.6000,90.4920,0.2145,-1.8402,2
-0.3041,-0.0196,-9.1135,0.0070,-0.0340,0.0020,49.0000,22.0044,-0.5400,90.6370,0.1712,-2.0964,2
-0.3335,0.0000,-9.9571,0.0080,0.0130,0.0010,49.0000,22.0186,-0.4400,90.7590,0.2401,-2.2576,2
-0.4218,-0.0589,-10.5457,-0.0020,0.0380,-0.0060,49.0000,22.0074,-0.5600,90.8790,0.2302,-1.9389,2
-0.3237,-0.0294,-9.5255,0.0040,-0.0250,0.0020,49.0000,21.9666,-0.6600,91.0440,0.1817,-1.8572,2
-0.2943,-0.0883,-9.0252,0.0000,-0.0250,0.0070,49.0000,21.9456,-0.4700,91.1770,0.0707,-2.3459,2
-0.3532,0.0883,-10.0258,0.0190,0.0280,0.0000,49.0000,21.9991,-0.3800,91.2790,0.1607,-2.4081,2
-0.3924,-0.1177,-10.6733,-0.0020,0.0410,0.0030,50.0000,21.9915,-0.5600,91.3880,0.2462,-1.8722,2
-0.2943,-0.0098,-9.8885,0.0120,-0.0080,0.0070,50.0000,21.9699,-0.7000,91.5610,0.2673,-1.6487,2
-0.2551,-0.0098,-8.8094,-0.0090,-0.0370,0.0100,49.0000,21.9932,-0.5300,91.7180,0.2119,-2.1523,2
-0.2943,-0.0589,-10.0258,-0.0080,0.0270,-0.0030,49.0000,21.9746,-0.4000,91.8340,0.0928,-2.3618,2
-0.3630,0.0000,-10.4869,-0.0050,0.0310,0.0060,49.0000,21.9946,-0.5400,91.9520,0.0444,-2.0087,2
-0.3237,-0.0196,-9.8689,0.0110,0.0010,0.0050,49.0000,21.9889,-0.6500,92.1120,0.0419,-1.8268,2
-0.2845,0.0589,-9.4176,0.0130,-0.0240,0.0000,49.0000,21.9712,-0.5900,92.2630,0.1960,-2.0197,2
-0.3139,0.0294,-9.4274,0.0010,-0.0040,0.0060,49.0000,22.0051,-0.4600,92.4010,0.2742,-2.2984,2
-0.3826,-0.0687,-10.1239,-0.0150,0.0200,-0.0060,49.0000,22.0268,-0.4800,92.5090,0.2093,-2.1550,2
-0.4316,0.0196,-10.0651,-0.0090,0.0110,0.0140,49.0000,21.9930,-0.5800,92.6470,0.0267,-1.8921,2
-0.3335,-0.0589,-9.5746,0.0030,-0.0180,0.0000,49.0000,21.9649,-0.5900,92.7940,-0.0499,-1.9271,2
-0.2747,0.0687,-9.2410,0.0190,-0.0120,-0.0080,49.0000,21.9782,-0.4500,92.9320,0.1151,-2.2949,2
-0.3630,-0.0196,-10.1141,0.0030,0.0160,0.0000,49.0000,21.9804,-0.4400,93.0330,0.2238,-2.2619,2
-0.3630,-0.0392,-10.2024,-0.0060,0.0140,-0.0020,50.0000,21.9744,-0.5400,93.1580,0.2083,-2.0470,2
-0.2845,0.0000,-9.9179,-0.0110,0.0020,0.0170,49.0000,22.0004,-0.6000,93.2990,0.0668,-1.9454,2
-0.3041,0.1373,-9.6628,0.0120,-0.0070,-0.0060,49.0000,22.0075,-0.6000,93.4560,0.1865,-1.9629,2
-0.3041,0.0098,-9.5942,-0.0020,0.0000,-0.0020,49.0000,21.9854,-0.5300,93.5880,0.2056,-2.0982,2
-0.3433,-0.0785,-9.8492,-0.0040,0.0000,0.0150,49.0000,21.9998,-0.5300,93.7210,0.0533,-2.0513,2
-0.3335,0.0000,-9.8983,0.0120,0.0000,0.0060,49.0000,22.0178,-0.5500,93.8440,0.0121,-1.9706,2
-0.2845,0.0098,-9.4666,0.0000,-0.0100,0.0050,49.0000,21.9732,-0.5100,93.9860,0.0376,-2.1090,2
-0.4022,0.0000,-10.1043,0.0100,0.0230,0.0080,49.0000,21.9955,-0.4900,94.1040,0.0509,-2.1207,2
-0.3237,0.0883,-10.0062,0.0070,0.0000,-0.0010,49.0000,22.0065,-0.6000,94.2480,0.1394,-1.9154,2
-0.3041,-0.0392,-9.6825,0.0000,-0.0050,-0.0030,49.0000,22.0225,-0.5800,94.3930,0.1005,-2.0019,2
-0.3433,0.0098,-9.9179,-0.0010,0.0150,0.0010,49.0000,22.0026,-0.5400,94.5350,0.0198,-2.0547,2
-0.3924,0.0490,-9.8492,0.0000,0.0070,0.0080,49.0000,21.9877,-0.5800,94.6720,-0.0482,-1.9386,2
-0.2747,-0.0196,-9.3784,0.0110,-0.0130,-0.0130,49.0000,22.0051,-0.5300,94.8260,0.0266,-2.0804,2
-0.3924,0.0294,-9.8002,0.0040,0.0110,0.0170,49.0000,21.9718,-0.4800,94.9440,0.1041,-2.1353,2
-0.3532,0.0392,-9.8689,0.0020,0.0040,0.0050,49.0000,22.0006,-0.5100,95.0700,0.0943,-2.0578,2
-0.3139,0.0392,-9.8100,-0.0030,0.0040,0.0110,49.0000,21.9550,-0.5100,95.1900,0.1799,-2.0670,2
-0.3433,-0.0490,-9.8983,-0.0020,0.0030,0.0090,50.0000,21.9525,-0.5300,95.3220,0.0604,-2.0280,2
-0.3237,-0.0589,-9.9670,-0.0010,0.0020,-0.0040,50.0000,21.9679,-0.6000,95.4570,0.0194,-1.8971,2
-0.2649,-0.0392,-9.2410,-0.0040,-0.0160,0.0050,50.0000,22.0119,-0.5100,95.6080,-0.0388,-2.2046,2
-0.4414,0.0000,-10.2024,0.0140,0.0210,-0.0080,49.0000,22.0096,-0.4800,95.7220,0.0037,-2.1342,2
-0.3630,0.0490,-10.2318,0.0130,0.0130,0.0100,49.0000,21.9766,-0.5900,95.8650,0.0630,-1.8537,2
-0.3630,0.0000,-9.5059,0.0020,-0.0170,-0.0040,49.0000,21.9811,-0.5700,96.0160,0.0990,-1.9953,2
-0.3139,-0.0098,-9.5059,0.0020,-0.0090,0.0130,49.0000,22.0287,-0.4700,96.1600,0.1116,-2.2183,2
-0.4022,-0.0883,-10.1141,0.0030,0.0180,-0.0080,49.0000,22.0463,-0.4800,96.2760,0.0687,-2.1431,2
-0.3630,-0.0196,-10.2809,-0.0020,0.0110,-0.0020,49.0000,21.9941,-0.5900,96.4140,0.0642,-1.9045,2
-0.3433,-0.0785,-9.7217,0.0130,-0.0050,0.0030,49.0000,21.9809,-0.6200,96.5620,0.0360,-1.9255,2
-0.3532,0.0000,-9.6040,0.0070,-0.0100,0.0050,49.0000,22.0026,-0.5500,96.7160,0.1378,-2.1348,2
-0.3924,0.0392,-9.5942,0.0110,0.0000,0.0010,49.0000,22.0127,-0.4700,96.8410,0.2265,-2.2772,2
-0.4022,0.0392,-10.2220,0.0060,0.0200,0.0120,49.0000,21.9906,-0.5100,96.9710,0.2651,-2.0969,2
-0.3335,0.0392,-9.9571,-0.0080,0.0110,0.0020,49.0000,21.9728,-0.5800,97.1050,0.2290,-1.9396,2
-0.3335,-0.0392,-9.6334,-0.0090,-0.0050,0.0000,49.0000,21.9460,-0.5500,97.2570,0.0322,-2.0326,2
-0.3335,-0.0785,-9.7806,0.0000,0.0070,0.0000,49.0000,21.9520,-0.5300,97.3920,0.0531,-2.0752,2
-0.3728,-0.0883,-9.8296,0.0030,-0.0020,0.0030,49.0000,22.0264,-0.5400,97.5370,0.1019,-2.0786,2
-0.3924,0.0196,-9.8590,0.0030,-0.0010,0.0040,49.0000,22.0126,-0.5400,97.6710,0.1524,-2.0983,2
-0.3924,0.5297,-10.4575,-0.8500,0.0360,-0.1530,49.0000,21.9912,-0.5800,97.8210,-3.5766,-1.9979,2
-0.3433,-1.1281,-11.5169,-1.5800,0.0140,-0.0850,51.0000,21.9753,-0.8200,97.9930,-22.3251,-1.9050,2
0.1864,-0.0981,-10.9185,-1.5910,0.1490,-0.1390,57.0000,22.0191,-0.4500,98.1700,-46.1656,-2.1635,3
1.4715,0.4414,-17.2558,-0.9710,0.6230,-0.1300,78.0000,22.0840,0.1200,98.2030,-64.7602,-1.1918,3
1.7854,1.7069,-33.8641,0.3200,1.3630,-0.1310,65.0000,22.5683,-0.0500,98.1560,-69.2319,2.3281,3
1.3734,3.3943,-39.5539,1.5800,1.1650,-0.1450,66.0000,22.8959,-2.5800,98.4250,-55.3487,9.2189,3
-0.3728,3.5022,-11.1245,1.6970,-0.2260,-0.1870,40.0000,23.0801,-5.2100,99.5760,-31.6543,11.5087,3
-1.6677,2.7370,8.0246,1.6460,-0.9100,-0.1710,16.0000,22.8743,-2.7600,100.6410,-8.6205,1.6814,2
-4.7480,1.7266,4.8363,1.3330,-0.5570,-0.0980,0.0000,22.0491,1.8200,100.6940,14.5740,-10.4195,1
-5.6113,-0.1766,-8.7113,0.3260,0.1420,-0.0320,11.0000,21.3609,3.4100,99.9580,25.7899,-12.0403,1
-3.5316,-1.5304,-13.5967,-0.2110,0.2160,0.1320,25.0000,20.4516,2.7200,99.1190,24.6073,-9.1325,1
-1.9326,-1.2753,-10.7027,0.0420,0.0630,0.1980,33.0000,20.0104,2.2200,98.5430,22.7069,-8.5539,1
-1.1085,-0.7357,-10.9087,0.3760,0.1390,0.1730,37.0000,19.6936,2.2000,97.9750,25.9005,-8.6738,1
-0.5886,-0.8240,-13.5476,0.4030,0.2600,0.1640,43.0000,19.6809,1.8300,97.4850,31.0606,-7.1037,1
0.0392,-1.1281,-13.7536,0.3130,0.2600,0.1730,47.0000,19.8319,1.2500,97.0930,35.9380,-5.1442,1
0.5003,-1.3930,-12.4979,0.2690,0.2240,0.2040,52.0000,19.9921,0.9700,96.8450,39.5012,-4.2907,1
0.7652,-1.4519,-13.0179,0.2680,0.2770,0.2200,55.0000,20.3538,0.8700,96.6080,43.2157,-3.8429,1
0.9025,-1.5205,-14.9602,0.2440,0.3780,0.2230,59.0000,20.6790,0.6100,96.4200,46.3735,-2.7835,3
1.0399,-1.5794,-16.2061,0.2080,0.4250,0.2380,61.0000,21.1803,0.1300,96.3180,49.4753,-1.3558,3
1.2164,-1.7854,-16.0590,0.1800,0.4370,0.2280,64.0000,21.5413,-0.2500,96.3340,52.0232,-0.1383,3
1.1968,-1.9129,-16.3827,0.1240,0.4550,0.2460,65.0000,22.0614,-0.5900,96.4540,54.2311,0.7718,3
1.0497,-1.8737,-16.9124,0.0900,0.4740,0.2540,66.0000,22.3432,-0.8900,96.6400,55.8230,1.6404,3
0.9516,-2.0012,-16.8143,0.0600,0.4640,0.2560,66.0000,22.7383,-1.2000,96.9240,57.1147,2.3356,3
0.7554,-2.1190,-16.1178,0.0000,0.4330,0.2390,64.0000,22.9909,-1.3700,97.2460,57.7161,2.7910,3
0.3532,-2.1680,-15.1761,-0.0120,0.3980,0.2470,62.0000,23.3050,-1.4400,97.6260,57.9889,2.9082,3
0.0490,-2.0503,-14.5090,-0.0150,0.3630,0.2640,59.0000,23.4304,-1.4100,97.9810,58.1900,2.7416,3
-0.3139,-2.0895,-13.9694,-0.0080,0.3540,0.2390,57.0000,23.5052,-1.2600,98.3400,58.2569,2.4362,3
-0.4807,-2.1484,-14.0185,-0.0070,0.3530,0.2400,55.0000,23.5044,-1.1200,98.6350,58.2184,2.1655,3
-0.7259,-2.1091,-13.8125,-0.0480,0.3510,0.2560,54.0000,23.4508,-0.9400,98.9140,57.9222,1.7549,3
-0.8829,-2.1974,-13.4299,-0.0590,0.3380,0.2430,51.0000,23.4078,-0.7800,99.1350,57.1723,1.4210,3
-1.2066,-2.1778,-13.4103,-0.0660,0.3170,0.2540,48.0000,23.2512,-0.6300,99.3290,56.2781,0.9815,3
-1.2459,-2.1190,-12.1840,-0.0810,0.2650,0.2470,46.0000,23.1725,-0.4100,99.4570,55.3078,0.4056,3
-1.4421,-2.0895,-12.0369,-0.0830,0.2600,0.2590,45.0000,22.9237,-0.1300,99.5190,54.0939,-0.3236,3
-1.5107,-2.0895,-12.1055,-0.0680,0.2690,0.2440,43.0000,22.7567,0.1100,99.5100,53.1014,-0.9154,3
-1.5107,-2.0601,-12.3900,-0.0740,0.2680,0.2510,43.0000,22.4907,0.2700,99.4480,51.8949,-1.3303,3
-1.4617,-2.0111,-12.2036,-0.0760,0.2610,0.2530,43.0000,22.3853,0.3900,99.3680,50.6719,-1.6793,3
-1.4421,-1.9228,-12.2233,-0.0930,0.2490,0.2340,42.0000,22.1551,0.4800,99.2490,49.1412,-1.9924,3
-1.4126,-1.9816,-12.2625,-0.1050,0.2430,0.2390,42.0000,22.0574,0.5200,99.1210,47.5354,-2.1419,3
-1.3440,-1.9228,-11.4483,-0.1090,0.1950,0.2200,41.0000,21.8662,0.5800,98.9740,45.6464,-2.4728,3
-1.3145,-1.9424,-11.4581,-0.1070,0.1820,0.2240,41.0000,21.7611,0.6500,98.8070,43.8792,-2.7688,3
-1.1968,-1.7658,-11.3404,-0.0850,0.1850,0.2240,42.0000,21.6462,0.7400,98.6020,42.2460,-3.1506,3
-1.0889,-1.6971,-11.6641,-0.0860,0.1870,0.2130,43.0000,21.5550,0.7400,98.4030,40.8332,-3.2266,3
-0.9516,-1.6971,-11.8995,-0.1020,0.1870,0.2120,44.0000,21.4609,0.6500,98.2110,39.2377,-3.0597,3
-0.8240,-1.6775,-11.6837,-0.1010,0.1680,0.1930,44.0000,21.4409,0.5400,98.0710,37.6240,-2.8658,3
-0.7848,-1.4813,-11.0951,-0.0940,0.1320,0.2100,44.0000,21.4398,0.4700,97.9440,35.8357,-2.9398,3
-0.7063,-1.4715,-10.8695,-0.0760,0.1290,0.1870,45.0000,21.4571,0.4800,97.8260,34.4648,-3.0980,3
-0.7259,-1.3734,-11.1932,-0.0570,0.1350,0.1850,45.0000,21.4712,0.4300,97.6990,33.2586,-3.0786,3
-0.6376,-1.3734,-11.3502,-0.0480,0.1370,0.1810,46.0000,21.5187,0.3300,97.5970,32.3454,-2.8620,3
-0.5886,-1.4126,-10.8989,-0.0630,0.1150,0.1670,46.0000,21.5251,0.2400,97.5060,31.3029,-2.7126,3
-0.5003,-1.2753,-10.8008,-0.0510,0.1090,0.1650,47.0000,21.5585,0.1900,97.4340,30.4535,-2.7039,3
-0.4905,-1.2459,-10.9087,-0.0150,0.1180,0.1580,47.0000,21.5663,0.1400,97.3750,29.9305,-2.6253,3
-0.4513,-1.3440,-11.0559,-0.0090,0.1060,0.1500,48.0000,21.5825,0.0000,97.3520,29.6385,-2.2753,3
-0.3924,-1.3047,-10.9381,-0.0040,0.1020,0.1670,48.0000,21.5783,-0.0900,97.3670,29.4051,-2.0896,3
-0.3630,-1.2164,-10.5457,0.0060,0.0830,0.1460,49.0000,21.6459,-0.1200,97.3970,29.3544,-2.1004,3
-0.3433,-1.2753,-10.3986,0.0150,0.0910,0.1640,49.0000,21.7155,-0.0900,97.4330,29.3231,-2.1754,3
-0.3433,-1.3047,-11.1049,0.0280,0.1160,0.1520,49.0000,21.7297,-0.1500,97.4650,29.4599,-1.9710,3
-0.3041,-1.3342,-10.8204,0.0270,0.0970,0.1640,49.0000,21.8089,-0.2600,97.5130,29.7063,-1.7619,3
-0.3433,-1.2851,-10.6733,0.0170,0.0970,0.1570,49.0000,21.8250,-0.2600,97.5700,29.9257,-1.7739,3
-0.3433,-1.1968,-10.6635,0.0490,0.0980,0.1650,49.0000,21.8906,-0.2700,97.6360,30.3312,-1.7883,3
-0.4218,-1.2557,-10.9087,0.0390,0.1110,0.1540,49.0000,21.9382,-0.3200,97.7100,30.8152,-1.6026,3
-0.3335,-1.3243,-10.7125,0.0320,0.1040,0.1610,49.0000,21.9544,-0.3400,97.8040,31.2375,-1.5221,3
-0.3924,-1.2655,-10.8204,0.0420,0.1120,0.1630,49.0000,21.9736,-0.3500,97.8880,31.5934,-1.4551,3
-0.3728,-1.2361,-10.5261,0.0330,0.0970,0.1690,49.0000,21.9608,-0.3400,97.9830,31.9978,-1.5324,3
-0.4120,-1.2851,-10.7223,0.0360,0.1030,0.1690,50.0000,21.9640,-0.3200,98.0600,32.3424,-1.5393,3
-0.3924,-1.3832,-11.1932,0.0380,0.1280,0.1700,50.0000,22.0304,-0.3500,98.1400,32.7630,-1.3363,3
-0.3826,-1.3636,-10.8204,0.0280,0.1200,0.1700,50.0000,21.9944,-0.3600,98.2220,33.2289,-1.3299,3
-0.4316,-1.3538,-10.8597,0.0410,0.1170,0.1670,50.0000,22.0405,-0.3500,98.3010,33.5427,-1.3630,3
-0.4218,-1.4421,-10.7910,0.0470,0.1230,0.1820,50.0000,22.0714,-0.3400,98.3750,34.1547,-1.4048,3
-0.4611,-1.3342,-11.5464,0.0400,0.1520,0.1780,50.0000,22.0697,-0.3900,98.4660,34.7302,-1.1972,3
-0.3237,-1.3734,-10.9480,0.0210,0.1230,0.1850,50.0000,22.0777,-0.4200,98.5720,35.1322,-1.1030,3
-0.4022,-1.4421,-10.6635,0.0210,0.1170,0.1880,49.0000,22.0803,-0.3500,98.6760,35.2707,-1.2429,3
-0.4611,-1.4028,-10.8793,0.0290,0.1340,0.1840,49.0000,22.0910,-0.2800,98.7500,35.5239,-1.4207,3
-0.5199,-1.4715,-11.2030,0.0330,0.1470,0.1860,49.0000,22.0683,-0.2700,98.8180,35.9228,-1.3299,3
-0.4022,-1.4911,-10.9381,0.0290,0.1320,0.1830,49.0000,22.0446,-0.2700,98.8810,36.2245,-1.3719,3
-0.4513,-1.3930,-11.3109,0.0500,0.1520,0.1970,50.0000,22.0941,-0.2700,98.9410,36.5807,-1.3586,3
-0.4709,-1.3734,-11.1442,0.0380,0.1420,0.1860,49.0000,22.1004,-0.2700,99.0070,37.0049,-1.3284,3
-0.4611,-1.4617,-11.5071,0.0270,0.1580,0.1930,49.0000,22.1316,-0.3100,99.0850,37.3178,-1.1744,3
-0.4709,-1.5107,-11.0951,0.0070,0.1370,0.1830,49.0000,22.1239,-0.3200,99.1660,37.5296,-1.1156,3
-0.5494,-1.4813,-10.7027,0.0050,0.1250,0.1960,49.0000,22.0842,-0.2300,99.2430,37.5072,-1.3550,3
-0.5690,-1.4813,-10.8793,0.0290,0.1360,0.1920,49.0000,22.0915,-0.1500,99.2910,37.5414,-1.5517,3
-0.5395,-1.4617,-11.1540,0.0460,0.1540,0.1920,49.0000,22.0765,-0.1100,99.3240,37.8790,-1.6292,3
-0.4807,-1.4813,-11.6935,0.0200,0.1730,0.1910,49.0000,22.0544,-0.1400,99.3460,38.1581,-1.4668,3
-0.4709,-1.5500,-11.4973,0.0120,0.1630,0.1880,49.0000,22.1149,-0.2000,99.3850,38.2468,-1.3095,3
-0.5003,-1.5402,-11.1049,0.0130,0.1440,0.1960,49.0000,22.1158,-0.2200,99.4380,38.4018,-1.3015,3
-0.5984,-1.5990,-11.0461,0.0010,0.1490,0.1870,49.0000,22.1104,-0.1600,99.4940,38.4059,-1.4643,3
-0.6278,-1.5696,-11.3011,0.0170,0.1540,0.1980,48.0000,22.1336,-0.1600,99.5410,38.4344,-1.4326,3
-0.5592,-1.5402,-10.8400,0.0150,0.1320,0.1960,49.0000,22.0811,-0.1400,99.5920,38.6423,-1.5114,3
-0.5788,-1.5794,-10.9872,0.0040,0.1460,0.2010,48.0000,22.0465,-0.0600,99.6170,38.6383,-1.6740,3
-0.6082,-1.5009,-11.7328,0.0130,0.1750,0.1990,49.0000,22.0744,-0.0400,99.6240,38.6247,-1.6786,3
-0.5788,-1.4421,-11.5169,0.0180,0.1600,0.2020,48.0000,22.0689,-0.1100,99.6470,38.6780,-1.5129,3
-0.5984,-1.5598,-11.0264,0.0030,0.1470,0.1870,48.0000,22.0616,-0.1000,99.6730,38.7363,-1.5429,3
-0.6082,-1.5892,-11.2521,-0.0100,0.1540,0.1940,48.0000,22.0609,-0.0800,99.6850,38.4852,-1.5932,3
-0.6278,-1.4911,-11.1932,0.0240,0.1540,0.2020,48.0000,22.0406,-0.0600,99.7000,38.6213,-1.6937,3
-0.5886,-1.5500,-11.4581,0.0270,0.1710,0.1930,48.0000,22.0509,-0.0500,99.7180,38.7722,-1.6684,3
-0.5984,-1.5205,-11.2325,-0.0070,0.1520,0.1930,48.0000,22.0421,-0.0600,99.7470,38.7948,-1.6332,3
-0.6082,-1.5205,-11.1736,-0.0060,0.1570,0.2000,48.0000,22.0336,-0.0400,99.7680,38.5456,-1.7176,3
-0.6082,-1.5009,-11.3600,0.0070,0.1550,0.1910,48.0000,21.9791,-0.0300,99.7820,38.5374,-1.7157,3
-0.5592,-1.5990,-11.3011,0.0080,0.1560,0.1990,48.0000,21.9887,-0.0400,99.7870,38.4591,-1.6817,3
-0.5494,-1.6088,-11.2030,0.0000,0.1560,0.2050,49.0000,22.0107,-0.0200,99.7880,38.4258,-1.7400,3
-0.5788,-1.5500,-11.1932,0.0210,0.1560,0.1970,48.0000,22.0186,-0.0100,99.7860,38.3691,-1.8092,3
-0.5395,-1.4617,-11.4090,0.0280,0.1620,0.1970,48.0000,22.0533,-0.0100,99.7840,38.5876,-1.7658,3
-0.5984,-1.5892,-11.2717,-0.0010,0.1610,0.1860,48.0000,22.0160,-0.0100,99.7910,38.6224,-1.7007,3
-0.5592,-1.5892,-11.2423,-0.0080,0.1560,0.1930,48.0000,22.0304,-0.0200,99.8010,38.4571,-1.6955,3
-0.6376,-1.5402,-11.5071,0.0060,0.1590,0.1950,48.0000,22.0090,-0.0500,99.8170,38.2960,-1.6547,3
-0.6082,-1.5205,-11.1736,0.0160,0.1450,0.1890,48.0000,21.9757,-0.0700,99.8410,38.3278,-1.6416,3
-0.6180,-1.4911,-10.8695,0.0000,0.1370,0.1930,48.0000,22.0026,0.0000,99.8540,38.2819,-1.8005,3
-0.6082,-1.5500,-11.1147,0.0040,0.1450,0.1990,48.0000,22.0304,0.0500,99.8400,38.0937,-1.9290,3
-0.5788,-1.5696,-11.4286,0.0210,0.1810,0.1970,48.0000,22.0156,0.0700,99.8140,38.1112,-1.9821,3
-0.6082,-1.4911,-11.5267,0.0280,0.1650,0.1950,48.0000,22.0147,-0.0100,99.8010,38.3612,-1.7755,3
-0.5592,-1.5402,-11.7033,0.0010,0.1650,0.1970,48.0000,21.9798,-0.0500,99.8080,38.3699,-1.6408,3
-0.5690,-1.5696,-11.0755,-0.0080,0.1450,0.1940,48.0000,22.0014,-0.0500,99.8300,38.1991,-1.6764,3
-0.5592,-1.5892,-10.8891,-0.0030,0.1430,0.1980,48.0000,21.9864,0.0000,99.8400,37.9380,-1.8464,3
-0.6278,-1.4617,-11.5660,0.0140,0.1630,0.1970,48.0000,22.0203,-0.0100,99.8450,37.8923,-1.7709,3
-0.6573,-1.5009,-11.1147,0.0120,0.1440,0.1890,48.0000,22.0166,-0.0300,99.8600,37.9141,-1.7714,3
-0.5788,-1.4715,-10.8891,0.0100,0.1460,0.1930,48.0000,21.9850,0.0300,99.8670,37.8591,-1.9605,3
-0.6278,-1.5500,-11.3992,0.0150,0.1640,0.2020,48.0000,21.9586,0.0300,99.8590,37.8114,-1.9054,3
-0.5690,-1.5304,-11.2913,0.0130,0.1460,0.1850,48.0000,21.9905,-0.0300,99.8620,37.9840,-1.7283,3
-0.5494,-1.5402,-11.0951,0.0060,0.1470,0.1990,48.0000,22.0276,-0.0300,99.8760,37.9084,-1.7363,3
-0.5690,-1.5598,-11.0559,0.0060,0.1440,0.1870,48.0000,21.9903,-0.0200,99.8950,37.8464,-1.7873,3
-0.6180,-1.4715,-11.3011,0.0180,0.1620,0.1990,48.0000,22.0083,0.0000,99.9110,37.8417,-1.8422,3
-0.6082,-1.5009,-11.1049,0.0120,0.1400,0.1810,48.0000,21.9714,0.0000,99.9280,37.8943,-1.8225,3
-0.5984,-1.5696,-11.0755,0.0080,0.1470,0.1970,48.0000,21.9359,0.0000,99.9360,37.7808,-1.8590,3
-0.5886,-1.5402,-11.1343,0.0140,0.1400,0.1920,48.0000,21.9578,0.0200,99.9380,37.7895,-1.9137,3
-0.4807,-1.5205,-11.2325,0.0180,0.1660,0.1900,48.0000,21.9644,0.0700,99.9210,37.8630,-2.0012,3
-0.5494,-1.5794,-11.6641,0.0110,0.1650,0.1920,48.0000,21.9707,-0.0100,99.9120,37.8494,-1.7715,3
-0.5395,-1.5205,-10.9381,0.0120,0.1370,0.1950,48.0000,21.9660,-0.0200,99.9240,37.8346,-1.8545,3
-0.6082,-1.5598,-11.1736,0.0070,0.1510,0.1920,48.0000,21.9339,0.0200,99.9260,37.7782,-1.8989,3
-0.5494,-1.5009,-11.0853,0.0150,0.1490,0.2000,48.0000,21.9567,0.0200,99.9220,37.7027,-1.9731,3
-0.6082,-1.5402,-11.3502,0.0140,0.1580,0.1930,48.0000,22.0064,0.0100,99.9200,37.8031,-1.8900,3
-0.6082,-1.4911,-11.4286,-0.0030,0.1490,0.1950,48.0000,21.9811,-0.0400,99.9290,37.7768,-1.7545,3
-0.5592,-1.5598,-10.9381,0.0070,0.1360,0.1860,48.0000,21.9860,-0.0100,99.9410,37.6226,-1.8801,3
-0.6180,-1.5304,-11.3404,0.0150,0.1560,0.2030,48.0000,21.9909,0.0000,99.9340,37.5994,-1.8976,3
-0.5494,-1.4617,-11.1245,0.0290,0.1460,0.2000,48.0000,21.9971,0.0100,99.9270,37.7464,-1.9827,3
-0.5494,-1.4813,-11.3305,0.0250,0.1560,0.1830,48.0000,21.9667,0.0500,99.9130,37.9951,-2.0287,3
-0.6180,-1.5598,-11.7229,0.0080,0.1790,0.1920,48.0000,21.9815,0.0100,99.9060,38.0128,-1.8838,3
-0.6082,-1.5696,-11.6837,0.0010,0.1710,0.1940,48.0000,21.9771,-0.0800,99.9280,38.0161,-1.6346,3
-0.4905,-1.5696,-10.8204,-0.0010,0.1350,0.1880,48.0000,21.9659,-0.0800,99.9650,37.8819,-1.6874,3
-0.5003,-1.6285,-10.6635,0.0050,0.1280,0.2000,48.0000,21.9547,-0.0100,99.9840,37.6569,-1.8911,3
-0.6475,-1.4911,-11.2717,0.0190,0.1530,0.1910,48.0000,21.9528,0.0300,99.9870,37.6275,-2.0094,3
-0.6376,-1.4617,-11.1442,0.0290,0.1480,0.2050,48.0000,21.9543,0.0500,99.9740,37.8435,-2.0673,3
-0.5984,-1.5598,-11.4581,0.0190,0.1660,0.1780,48.0000,21.9658,0.0600,99.9500,38.0975,-1.9988,3
-0.5788,-1.5009,-11.7818,0.0080,0.1740,0.1980,49.0000,21.9699,0.0000,99.9360,38.0524,-1.8485,3
-0.5984,-1.5990,-11.3011,-0.0100,0.1540,0.1960,48.0000,21.9834,-0.0500,99.9490,37.9627,-1.7250,3
-0.5592,-1.4715,-11.1343,0.0180,0.1520,0.2060,48.0000,21.9536,-0.0500,99.9710,37.8719,-1.7842,3
-0.5984,-1.5009,-10.9381,0.0000,0.1360,0.1850,48.0000,22.0221,0.0000,99.9940,37.8735,-1.9326,3
-0.5984,-1.6088,-11.0755,0.0030,0.1400,0.1870,48.0000,22.0396,0.0200,100.0020,37.7641,-1.9516,3
-0.5297,-1.5892,-11.1932,0.0190,0.1510,0.2060,48.0000,22.0276,0.0300,99.9990,37.8380,-2.0188,3
-0.6475,-1.4813,-11.3600,0.0160,0.1540,0.1940,48.0000,21.9940,0.0200,99.9940,37.9697,-1.9638,3
-0.5592,-1.5402,-11.3502,0.0090,0.1550,0.1980,48.0000,21.9992,-0.0100,99.9910,37.9056,-1.8558,3
-0.6376,-1.4813,-10.9087,0.0090,0.1290,0.2040,48.0000,21.9948,-0.0100,99.9930,37.8559,-1.9825,3
-0.6082,-1.5009,-11.1147,0.0170,0.1490,0.1930,48.0000,21.9988,0.0500,99.9790,37.8491,-2.1183,3
-0.5592,-1.4617,-11.4679,0.0240,0.1640,0.1970,48.0000,21.9726,0.0500,99.9670,37.9336,-2.0883,3
-0.5788,-1.5009,-11.7131,0.0130,0.1800,0.1990,48.0000,21.9619,-0.0300,99.9720,38.0667,-1.8031,3
-0.5494,-1.4421,-11.2521,-0.0090,0.1490,0.1900,48.0000,21.9715,-0.0800,99.9950,38.0609,-1.7425,3
-0.5690,-1.5794,-10.5850,-0.0050,0.1280,0.1920,48.0000,22.0180,-0.0300,100.0210,37.7429,-1.9193,3
-0.5886,-1.5500,-11.0657,0.0200,0.1420,0.1970,47.0000,22.0318,0.0200,100.0230,37.5389,-2.0899,3
-0.6278,-1.4813,-11.5562,0.0250,0.1650,0.2020,48.0000,21.9954,0.0300,100.0020,37.7396,-2.0608,3
-0.6082,-1.5500,-11.3305,0.0110,0.1380,0.1880,48.0000,21.9907,-0.0200,99.9890,37.8789,-1.9085,3
-0.5494,-1.5696,-11.0362,0.0020,0.1400,0.1940,48.0000,21.9963,0.0000,99.9820,37.8398,-2.0010,3
-0.5395,-1.5009,-11.3698,0.0090,0.1610,0.2020,48.0000,21.9809,0.0300,99.9740,37.7531,-2.0663,3
-0.6376,-1.5205,-11.5464,0.0250,0.1680,0.1840,48.0000,22.0024,-0.0300,99.9810,37.8137,-1.8616,3
-0.5788,-1.5990,-11.0657,0.0000,0.1360,0.1930,48.0000,21.9894,-0.0600,100.0080,37.8845,-1.8219,3
-0.5886,-1.5009,-10.9480,0.0040,0.1380,0.1950,48.0000,21.9896,-0.0200,100.0320,37.7351,-1.9418,3
-0.5690,-1.4813,-10.9381,0.0020,0.1440,0.2000,48.0000,21.9736,0.0300,100.0340,37.6312,-2.1176,3
-0.6180,-1.5696,-11.4090,0.0110,0.1570,0.1830,48.0000,21.9805,0.0100,100.0260,37.7082,-1.9932,3
-0.5592,-1.5107,-11.0853,0.0130,0.1430,0.2060,48.0000,21.9747,0.0000,100.0210,37.7189,-2.0499,3
-0.6376,-1.5009,-11.3207,0.0250,0.1570,0.1920,48.0000,21.9691,0.0300,100.0060,37.8574,-2.1072,3
-0.6671,-1.4911,-11.3404,0.0150,0.1550,0.1990,48.0000,21.9650,0.0300,99.9990,37.8658,-2.1127,3
-0.5690,-1.5990,-11.7229,0.0120,0.1860,0.1930,48.0000,21.9402,0.0200,99.9960,37.9872,-1.9916,3
-0.6278,-1.5598,-11.4483,-0.0030,0.1600,0.1880,49.0000,21.9615,-0.0500,100.0030,37.9952,-1.8164,3
-0.5199,-1.5107,-11.0559,-0.0110,0.1420,0.1890,48.0000,21.9892,-0.0500,100.0220,37.7295,-1.8522,3
-0.6376,-1.4813,-10.7419,0.0240,0.1320,0.1930,48.0000,21.9874,0.0000,100.0280,37.6977,-2.0777,3
-0.6278,-1.6285,-11.3207,0.0000,0.1600,0.1910,48.0000,21.9932,0.0300,100.0150,37.7200,-2.0244,3
-0.6180,-1.5402,-11.0853,0.0260,0.1380,0.2040,48.0000,22.0043,0.0100,100.0010,37.7988,-2.0895,3
-0.5592,-1.5402,-11.1147,0.0190,0.1480,0.1920,48.0000,21.9970,0.0400,99.9810,38.0512,-2.1239,3
-0.6082,-1.4224,-11.4679,0.0150,0.1640,0.2020,48.0000,22.0094,0.0400,99.9580,38.1527,-2.0829,3
-0.5886,-1.5009,-11.8701,0.0030,0.1790,0.1990,48.0000,21.9827,-0.0300,99.9520,38.1035,-1.8290,3
-0.5199,-1.5500,-11.1343,-0.0120,0.1410,0.1870,48.0000,21.9805,-0.0900,99.9730,37.9796,-1.7042,3
-0.6082,-1.5205,-10.8989,0.0050,0.1350,0.2050,48.0000,22.0262,-0.0600,99.9990,37.7173,-1.8910,3
-0.6180,-1.3734,-10.8106,0.0170,0.1370,0.1970,48.0000,21.9981,0.0100,100.0110,37.7970,-2.1036,3
-0.6180,-1.5696,-11.4090,0.0110,0.1670,0.1950,48.0000,22.0214,0.0200,100.0040,37.8230,-2.0230,3
-0.5788,-1.5598,-11.3305,0.0190,0.1570,0.1960,48.0000,22.0355,0.0000,99.9950,37.8268,-1.9672,3
-0.5788,-1.5304,-11.2226,0.0170,0.1560,0.1900,48.0000,22.0055,0.0100,99.9860,37.8847,-2.0304,3
-0.6475,-1.5107,-11.4679,0.0070,0.1650,0.1940,48.0000,21.9926,0.0000,99.9780,37.9360,-1.9655,3
-0.6278,-1.5892,-11.4581,-0.0040,0.1610,0.1860,48.0000,22.0236,-0.0400,99.9900,37.8736,-1.8146,3
-0.6278,-1.4421,-11.0166,0.0080,0.1410,0.1960,48.0000,22.0348,-0.0400,100.0120,37.8474,-1.8924,3
-0.5886,-1.5598,-10.9676,0.0040,0.1420,0.1930,48.0000,21.9709,0.0100,100.0220,37.7570,-2.0209,3
-0.6180,-1.5009,-11.2030,0.0170,0.1610,0.1900,48.0000,21.9657,0.0300,100.0200,37.7069,-2.0595,3
-0.5690,-1.5205,-11.3796,0.0120,0.1540,0.1900,48.0000,21.9924,0.0100,100.0150,37.8105,-1.9843,3
-0.5690,-1.6383,-11.0853,0.0060,0.1430,0.1910,48.0000,21.9835,0.0200,100.0020,37.7735,-2.0024,3
-0.6082,-1.5009,-11.0264,0.0240,0.1470,0.1980,48.0000,21.9743,0.0500,99.9810,37.8220,-2.1097,3
-0.6278,-1.4519,-11.5464,0.0130,0.1640,0.2060,48.0000,22.0048,0.0500,99.9570,37.8587,-2.0995,3
-0.6278,-1.5892,-11.8603,0.0190,0.1700,0.1870,48.0000,21.9810,-0.0400,99.9480,37.9076,-1.7812,3
-0.5199,-1.5205,-11.0068,0.0030,0.1450,0.1940,49.0000,21.9995,-0.0500,99.9650,37.8697,-1.8156,3
-0.5592,-1.5598,-10.8008,0.0090,0.1380,0.1950,48.0000,21.9913,0.0100,99.9800,37.7888,-1.9721,3
-0.5984,-1.5402,-11.3796,0.0140,0.1610,0.1930,48.0000,21.9789,0.0200,99.9800,37.8014,-1.9578,3
-0.5984,-1.4911,-11.1540,0.0140,0.1460,0.1970,48.0000,22.0274,0.0000,99.9850,37.8626,-1.9798,3
-0.5788,-1.4617,-11.3305,0.0110,0.1570,0.1870,48.0000,22.0320,0.0200,99.9760,37.9514,-2.0023,3
-0.5984,-1.5990,-11.3207,-0.0090,0.1480,0.1920,48.0000,22.0325,0.0000,99.9640,37.8790,-1.8699,3
-0.6376,-1.5205,-11.2325,0.0100,0.1500,0.2060,48.0000,22.0341,-0.0100,99.9610,37.8450,-1.9146,3
-0.6082,-1.5009,-11.3207,0.0200,0.1590,0.1990,48.0000,22.0195,0.0100,99.9560,37.9970,-1.9592,3
-0.6376,-1.5500,-11.4581,0.0050,0.1630,0.2000,48.0000,22.0541,-0.0100,99.9560,38.0529,-1.8599,3
-0.5886,-1.5304,-11.1442,0.0100,0.1440,0.1950,48.0000,22.0252,-0.0100,99.9690,38.0019,-1.8884,3
-0.6082,-1.6186,-11.1736,0.0020,0.1460,0.1880,48.0000,22.0502,0.0000,99.9740,37.9236,-1.8639,3
-0.5886,-1.5794,-11.3698,0.0140,0.1610,0.1950,48.0000,22.0216,0.0000,99.9780,37.8956,-1.8824,3
-0.6180,-1.4715,-11.2423,0.0120,0.1450,0.1980,48.0000,21.9842,-0.0200,99.9850,37.8651,-1.8814,3
-0.5592,-1.4519,-11.0461,0.0050,0.1450,0.1950,48.0000,22.0329,0.0100,99.9820,37.9444,-2.0047,3
-0.5395,-1.5107,-11.3502,0.0000,0.1590,0.1930,48.0000,22.0074,0.0200,99.9680,37.8667,-1.9726,3
-0.6082,-1.5500,-11.6052,0.0210,0.1720,0.1950,48.0000,21.9937,-0.0400,99.9650,37.8861,-1.7746,3
-0.5886,-1.4813,-10.8400,0.0010,0.1310,0.1920,48.0000,22.0273,-0.0400,99.9750,37.9441,-1.8699,3
-0.6082,-1.4813,-11.0951,0.0040,0.1490,0.1890,48.0000,22.0478,0.0300,99.9770,37.8033,-2.0389,3
-0.5886,-1.4715,-11.4777,0.0240,0.1620,0.1910,48.0000,21.9994,0.0000,99.9770,37.8864,-1.9255,3
-0.6082,-1.5205,-11.3305,0.0050,0.1500,0.1910,48.0000,22.0063,-0.0500,99.9960,37.9489,-1.7571,3
-0.5395,-1.5304,-10.9480,-0.0030,0.1300,0.1930,48.0000,22.0097,-0.0500,100.0230,37.8360,-1.7679,3
-0.5690,-1.5598,-10.7223,0.0130,0.1280,0.1960,48.0000,21.9787,0.0300,100.0290,37.6869,-2.0601,3
-0.6475,-1.5598,-11.4090,0.0280,0.1660,0.1970,48.0000,22.0069,0.0700,100.0040,37.8620,-2.1122,3
-0.5690,-1.5107,-11.6347,0.0200,0.1700,0.1970,48.0000,21.9580,0.0000,99.9800,38.0369,-1.9125,3
-0.4905,-1.5500,-11.2226,0.0070,0.1540,0.1860,48.0000,21.9627,0.0000,99.9750,38.0401,-1.8815,3
-0.5199,-1.4911,-11.5464,0.0180,0.1720,0.1920,49.0000,22.0027,-0.0200,99.9820,38.1226,-1.8158,3
-0.5984,-1.5696,-11.3305,-0.0020,0.1580,0.1940,48.0000,21.9788,-0.0600,99.9980,38.0585,-1.7017,3
-0.5886,-1.5598,-10.9283,-0.0050,0.1380,0.2040,48.0000,22.0001,-0.0600,100.0260,37.8756,-1.7866,3
-0.5984,-1.4715,-10.8204,0.0210,0.1280,0.2010,48.0000,22.0291,0.0100,100.0390,37.8310,-2.0278,3
-0.5690,-1.4715,-11.2521,0.0230,0.1520,0.1870,48.0000,22.0477,0.0800,100.0240,37.9223,-2.1483,3
-0.6180,-1.4911,-11.4483,0.0110,0.1630,0.2000,48.0000,22.0513,0.0500,100.0060,38.0110,-2.0582,3
-0.6376,-1.4715,-11.5954,0.0000,0.1680,0.1920,48.0000,22.0267,0.0000,99.9980,37.9233,-1.8840,3
-0.6573,-1.4813,-11.2521,-0.0020,0.1500,0.2080,48.0000,21.9774,-0.0500,100.0120,37.8144,-1.8272,3
-0.5592,-1.5304,-10.7714,0.0050,0.1290,0.1890,48.0000,21.9311,-0.0100,100.0280,37.7070,-1.9644,3
-0.5690,-1.6285,-11.3502,0.0120,0.1640,0.1960,48.0000,21.9619,0.0200,100.0300,37.6459,-1.9672,3
-0.5690,-1.5598,-11.2521,0.0310,0.1550,0.1990,48.0000,21.9633,0.0000,100.0320,37.8160,-1.9422,3
-0.5592,-1.4715,-11.2325,0.0110,0.1550,0.1960,48.0000,21.9847,0.0100,100.0280,37.8945,-1.9654,3
-0.5297,-1.4813,-11.0951,0.0100,0.1480,0.2010,48.0000,21.9627,0.0300,100.0220,37.9247,-2.0574,3
-0.5984,-1.4126,-11.3796,0.0090,0.1500,0.1940,48.0000,21.9685,0.0200,100.0060,37.8931,-2.0163,3
-0.5395,-1.5598,-11.3600,0.0120,0.1520,0.1920,48.0000,21.9536,0.0000,99.9930,37.8885,-1.9499,3
-0.5690,-1.4715,-11.1147,0.0270,0.1420,0.1980,49.0000,21.9945,0.0200,99.9820,37.9723,-2.0788,3
-0.6082,-1.4911,-11.6150,0.0160,0.1640,0.2020,48.0000,21.9924,0.0000,99.9780,38.0259,-1.9439,3
-0.5886,-1.5402,-11.4777,0.0140,0.1590,0.1870,48.0000,22.0438,-0.0400,99.9920,38.0743,-1.8412,3
-0.5297,-1.5402,-10.9087,-0.0120,0.1360,0.1880,48.0000,22.0287,-0.0400,100.0180,37.8966,-1.8498,3
-0.6082,-1.5009,-10.9970,0.0120,0.1330,0.1940,48.0000,22.0298,-0.0100,100.0350,37.7304,-1.9916,3
-0.6769,-1.4911,-11.0166,0.0210,0.1420,0.2010,48.0000,22.0279,0.0200,100.0360,37.8005,-2.0763,3
-0.6376,-1.5205,-11.1343,0.0180,0.1640,0.1940,48.0000,22.0103,0.0800,100.0230,37.8881,-2.1891,3
-0.6082,-1.4519,-11.8701,0.0160,0.1790,0.1950,48.0000,21.9671,0.0000,100.0080,37.9705,-1.9648,3
-0.5886,-1.4813,-11.4286,0.0060,0.1580,0.1900,48.0000,21.9813,-0.0300,100.0080,38.0495,-1.8847,3
-0.5494,-1.6383,-10.8891,-0.0170,0.1260,0.1900,48.0000,21.9869,-0.0300,100.0150,37.8124,-1.9209,3
-0.6278,-1.5794,-11.1245,0.0120,0.1470,0.2040,48.0000,21.9874,0.0100,100.0180,37.5820,-2.0469,3
-0.5788,-1.5205,-11.0951,0.0180,0.1360,0.1950,48.0000,21.9810,-0.0100,100.0250,37.8522,-1.9720,3
-0.6180,-1.5402,-11.1834,0.0230,0.1580,0.1990,48.0000,21.9767,0.0100,100.0290,37.9112,-2.0143,3
-0.5690,-1.5304,-11.3207,0.0080,0.1530,0.1930,48.0000,21.9767,-0.0100,100.0360,37.9810,-1.9255,3
-0.5788,-1.5892,-10.8302,-0.0040,0.1420,0.1850,48.0000,21.9890,0.0300,100.0370,37.9151,-2.0942,3
-0.5984,-1.5304,-11.3109,0.0000,0.1580,0.1980,48.0000,22.0032,0.0500,100.0150,37.8246,-2.1352,3
-0.5984,-1.4617,-11.6739,0.0120,0.1670,0.2060,48.0000,22.0429,0.0000,100.0030,37.8829,-2.0374,3
-0.5690,-1.5402,-11.3207,0.0110,0.1570,0.1850,48.0000,22.0055,-0.0200,99.9990,38.0713,-1.9505,3
-0.6082,-1.5696,-11.3011,0.0020,0.1600,0.1970,48.0000,22.0351,-0.0300,100.0040,38.0395,-1.9369,3
-0.6278,-1.5205,-11.0755,0.0070,0.1480,0.2000,48.0000,22.0067,-0.0300,100.0170,37.9411,-1.9435,3
-0.5886,-1.6383,-11.0951,0.0000,0.1410,0.1910,48.0000,21.9651,-0.0200,100.0280,37.8431,-1.9333,3
-0.6278,-1.4911,-10.9381,0.0140,0.1420,0.2040,48.0000,21.9954,0.0200,100.0360,37.7500,-2.1326,3
-0.5886,-1.5696,-11.4188,0.0200,0.1670,0.1940,48.0000,21.9803,0.0200,100.0340,37.8566,-2.0784,3
-0.6475,-1.5107,-11.2815,0.0250,0.1530,0.1920,48.0000,21.9768,0.0100,100.0240,38.0011,-2.0898,3
-0.5494,-1.5500,-11.2913,0.0130,0.1510,0.2020,48.0000,21.9776,0.0000,100.0090,37.9895,-2.0000,3
-0.5199,-1.6285,-11.3207,0.0030,0.1610,0.1940,48.0000,21.9968,-0.0200,100.0040,37.8736,-1.9496,3
-0.5886,-1.5009,-11.2030,0.0260,0.1490,0.1870,48.0000,21.9811,-0.0200,100.0050,37.8869,-1.9824,3
-0.5788,-1.5794,-11.0166,0.0180,0.1370,0.1940,48.0000,21.9627,-0.0200,100.0150,37.9698,-1.9821,3
-0.5788,-1.5794,-11.1736,0.0160,0.1540,0.1980,48.0000,21.9800,0.0000,100.0230,38.0355,-2.0235,3
-0.5886,-1.5598,-11.1932,0.0180,0.1530,0.2050,48.0000,21.9835,0.0200,100.0250,38.0223,-2.0989,3
-0.5984,-1.5794,-11.4777,0.0120,0.1630,0.1830,48.0000,21.9583,0.0000,100.0200,38.0350,-1.9923,3
-0.5886,-1.5598,-11.2717,-0.0010,0.1540,0.1870,48.0000,22.0060,-0.0300,100.0180,38.0097,-1.9054,3
-0.5690,-1.5500,-11.0166,-0.0130,0.1390,0.2040,48.0000,22.0068,0.0000,100.0110,37.7961,-2.0408,3
-0.6278,-1.5402,-11.0657,0.0190,0.1470,0.1960,48.0000,21.9689,0.0600,99.9910,37.7693,-2.2395,3
-0.5592,-1.5500,-11.6837,0.0260,0.1810,0.1830,48.0000,22.0044,0.0300,99.9750,38.0520,-2.0912,3
-0.5886,-1.5598,-11.5954,0.0050,0.1610,0.1960,48.0000,22.0087,-0.0900,99.9950,38.1621,-1.7435,3
-0.5297,-1.5598,-10.8204,0.0000,0.1350,0.1900,48.0000,21.9849,-0.0900,100.0300,38.0406,-1.8209,3
-0.5592,-1.6383,-10.7321,0.0000,0.1310,0.1900,48.0000,22.0067,0.0000,100.0490,37.8407,-2.0321,3
-0.6180,-1.5304,-11.0559,0.0140,0.1500,0.1930,48.0000,21.9885,0.0500,100.0430,37.7528,-2.1977,3
-0.6376,-1.5990,-11.4188,0.0180,0.1590,0.1900,48.0000,21.9987,0.0200,100.0270,37.9092,-2.0633,3
-0.5690,-1.4519,-11.2030,0.0150,0.1500,0.1970,48.0000,21.9670,0.0000,100.0160,38.0998,-2.0906,3
-0.5592,-1.5304,-11.2619,0.0110,0.1550,0.1950,48.0000,22.0030,0.0000,100.0010,38.1023,-2.0306,3
-0.5494,-1.5107,-11.0068,0.0080,0.1390,0.1960,48.0000,22.0075,0.0100,99.9860,38.0511,-2.1076,3
-0.5592,-1.4323,-11.1736,0.0240,0.1470,0.1960,48.0000,21.9930,0.0300,99.9750,38.0979,-2.1557,3
-0.6082,-1.5696,-11.5464,-0.0030,0.1720,0.1920,48.0000,22.0446,0.0000,99.9690,38.1250,-1.9780,3
-0.5199,-1.5304,-11.3502,0.0010,0.1570,0.2060,48.0000,22.0051,-0.0600,99.9810,37.9646,-1.8971,3
-0.6082,-1.5009,-11.2030,-0.0010,0.1590,0.1890,48.0000,22.0406,-0.0300,99.9950,37.8579,-1.9444,3
-0.5494,-1.4617,-10.9872,0.0110,0.1300,0.1880,48.0000,22.0466,-0.0400,100.0060,37.7668,-1.9835,3
-0.6278,-1.5990,-10.9381,0.0040,0.1420,0.1860,48.0000,22.0289,0.0300,100.0000,37.7053,-2.1213,3
-0.6867,-1.5500,-11.1442,0.0230,0.1540,0.1850,48.0000,21.9939,0.0300,99.9870,37.7818,-2.1250,3
-0.5886,-1.4323,-11.4090,0.0220,0.1650,0.2070,48.0000,21.9832,0.0000,99.9770,37.9494,-2.0583,3
-0.5690,-1.5598,-11.4483,0.0150,0.1540,0.1920,48.0000,21.9560,-0.0400,99.9840,38.0613,-1.9090,3
-0.5592,-1.5107,-11.1736,-0.0060,0.1390,0.1990,48.0000,21.9973,-0.0400,100.0010,37.9220,-1.9316,3
-0.6082,-1.5794,-11.1245,0.0040,0.1420,0.1980,48.0000,21.9985,-0.0200,100.0160,37.7360,-1.9825,3
-0.5788,-1.5402,-11.1147,0.0140,0.1450,0.2020,48.0000,22.0072,0.0000,100.0200,37.6689,-2.0379,3
-0.5984,-1.5696,-11.2325,0.0050,0.1560,0.1900,48.0000,22.0091,0.0000,100.0180,37.7750,-2.0376,3
-0.6180,-1.4911,-11.1343,0.0200,0.1470,0.1980,48.0000,22.0119,0.0100,100.0050,37.8623,-2.1001,3
-0.5788,-1.4813,-11.2717,0.0000,0.1570,0.1850,48.0000,21.9829,0.0500,99.9840,37.9303,-2.1273,3
-0.6475,-1.5598,-11.6347,0.0110,0.1710,0.1870,48.0000,22.0206,0.0100,99.9690,37.8696,-1.9956,3
-0.5788,-1.4911,-11.2521,0.0130,0.1470,0.2040,48.0000,22.0275,-0.0200,99.9680,37.8904,-1.9830,3
-0.6082,-1.5205,-11.1736,0.0250,0.1510,0.1830,48.0000,22.0498,-0.0200,99.9770,37.9763,-1.9566,3
-0.5886,-1.5990,-11.2717,0.0100,0.1530,0.1980,48.0000,21.9980,-0.0400,99.9900,37.9335,-1.8645,3
-0.5788,-1.4126,-10.9578,0.0120,0.1400,0.1980,48.0000,22.0116,-0.0100,100.0000,37.8761,-2.0120,3
-0.5199,-1.5794,-11.1834,0.0220,0.1500,0.1890,48.0000,21.9908,0.0100,99.9950,37.9105,-2.0084,3
-0.5788,-1.5304,-11.1638,0.0070,0.1530,0.2010,48.0000,22.0210,0.0300,99.9830,37.8847,-2.0774,3
-0.6376,-1.4715,-11.3404,0.0150,0.1520,0.1940,48.0000,22.0136,0.0200,99.9680,37.8974,-2.0549,3
-0.5395,-1.5304,-11.5071,0.0090,0.1670,0.1870,48.0000,21.9959,0.0000,99.9540,37.9320,-1.9447,3
-0.5788,-1.5009,-11.4581,0.0050,0.1590,0.2040,48.0000,22.0466,-0.0400,99.9590,37.8489,-1.8585,3
-0.5886,-1.4813,-11.2619,0.0190,0.1480,0.1910,48.0000,22.0246,-0.0600,99.9780,37.8507,-1.8071,3
-0.6475,-1.5598,-11.1147,0.0100,0.1480,0.1990,48.0000,22.0197,-0.0400,99.9980,37.8380,-1.8405,3
-0.6475,-1.4519,-10.8302,0.0120,0.1410,0.1970,48.0000,22.0127,0.0200,100.0050,37.8899,-2.0571,3
-0.5690,-1.5794,-11.3698,0.0050,0.1570,0.1950,48.0000,21.9888,0.0500,99.9920,37.8173,-2.0527,3
-0.5788,-1.5794,-11.4777,0.0050,0.1610,0.2010,48.0000,22.0210,0.0300,99.9810,37.7603,-2.0068,3
-0.5984,-1.3734,-11.2423,0.0220,0.1580,0.1880,48.0000,22.0368,0.0300,99.9730,37.8590,-2.0463,3
-0.6180,-1.5205,-11.4875,0.0110,0.1620,0.1970,48.0000,22.0191,0.0000,99.9640,37.8491,-1.9640,3
-0.5984,-1.5402,-11.5562,0.0100,0.1640,0.1990,48.0000,22.0289,-0.0200,99.9630,37.8065,-1.8782,3
-0.6475,-1.5009,-11.0657,0.0200,0.1410,0.1890,48.0000,22.0209,-0.0300,99.9790,37.8790,-1.9078,3
-0.6376,-1.5990,-10.9676,0.0090,0.1360,0.1910,48.0000,22.0389,-0.0100,100.0000,37.8387,-1.9569,3
-0.6573,-1.7069,-11.2325,0.0140,0.1520,0.1970,48.0000,21.9913,0.0000,100.0110,37.7465,-1.8883,3
-0.5984,-1.4911,-11.0068,0.0150,0.1490,0.1920,48.0000,21.9989,0.0000,100.0250,37.7838,-2.0347,3
-0.5690,-1.5107,-11.1834,0.0220,0.1560,0.1950,48.0000,22.0217,0.0300,100.0250,37.8575,-2.0645,3
-0.6573,-1.5009,-11.5366,0.0060,0.1720,0.1960,48.0000,21.9573,0.0300,100.0120,37.9145,-2.0006,3
-0.5494,-1.5304,-11.1834,0.0040,0.1500,0.1930,48.0000,21.9424,0.0100,100.0040,37.8894,-2.0111,3
-0.5199,-1.5598,-11.1736,0.0150,0.1450,0.1990,48.0000,21.9888,0.0400,99.9880,37.8686,-2.0793,3
-0.5886,-1.4813,-11.4483,0.0310,0.1680,0.1990,48.0000,21.9910,0.0500,99.9730,37.9001,-2.1084,3
-0.5395,-1.6186,-11.6150,0.0110,0.1670,0.1920,48.0000,22.0132,-0.0200,99.9710,38.0686,-1.8334,3
-0.5690,-1.4911,-11.3109,0.0020,0.1520,0.1990,48.0000,22.0406,-0.0500,99.9870,38.0272,-1.8223,3
-0.6180,-1.5009,-11.0166,-0.0040,0.1390,0.1960,48.0000,22.0211,-0.0200,100.0080,37.7787,-1.9150,3
-0.5984,-1.5205,-11.0362,0.0150,0.1440,0.1910,48.0000,22.0235,0.0100,100.0130,37.7581,-2.0298,3
-0.6475,-1.4813,-11.4385,0.0230,0.1650,0.1960,48.0000,21.9569,0.0100,100.0060,37.8209,-1.9882,3
-0.6376,-1.4911,-11.0951,0.0000,0.1510,0.2020,48.0000,21.9629,0.0400,99.9990,37.8377,-2.1169,3
-0.5788,-1.5304,-11.3894,0.0130,0.1560,0.1900,48.0000,21.9630,0.0200,99.9860,37.7498,-2.0222,3
-0.5690,-1.4813,-11.3796,0.0150,0.1600,0.1970,48.0000,21.9958,0.0000,99.9800,37.8515,-1.9783,3
-0.5395,-1.5107,-11.3698,0.0100,0.1510,0.1960,48.0000,21.9973,-0.0300,99.9890,37.8454,-1.8713,3
-0.5886,-1.5304,-11.1736,0.0040,0.1500,0.1890,48.0000,21.9932,-0.0300,100.0060,37.8330,-1.8570,3
-0.6376,-1.5598,-11.0068,0.0130,0.1430,0.1890,48.0000,22.0196,-0.0100,100.0190,37.7063,-1.9042,3
-0.5886,-1.5598,-10.8695,0.0190,0.1390,0.1920,48.0000,22.0395,0.0100,100.0230,37.7055,-1.9967,3
-0.6376,-1.4911,-11.1049,0.0230,0.1520,0.1920,48.0000,21.9825,0.0300,100.0150,37.8108,-2.0787,3
-0.5788,-1.5304,-11.4385,0.0260,0.1590,0.1920,48.0000,21.9799,0.0300,100.0050,37.9683,-2.0262,3
-0.5395,-1.5696,-11.2325,0.0030,0.1530,0.1970,48.0000,21.9885,0.0100,99.9900,38.0267,-1.9730,3
-0.5886,-1.5990,-11.3109,0.0000,0.1550,0.1930,48.0000,21.9690,0.0100,99.9750,37.9470,-2.0190,3
-0.5886,-1.5794,-11.4679,0.0070,0.1650,0.2000,48.0000,21.9940,0.0000,99.9660,37.9190,-1.9400,3
-0.6082,-1.5402,-11.2619,0.0200,0.1480,0.1980,49.0000,21.9700,-0.0300,99.9740,38.0716,-1.8700,3
-0.5395,-1.5500,-11.3011,0.0040,0.1590,0.2030,49.0000,22.0343,-0.0200,99.9910,38.1108,-1.8768,3
-0.5886,-1.5304,-11.2128,0.0090,0.1460,0.1930,48.0000,22.0231,-0.0300,100.0030,38.0707,-1.8758,3
-0.5886,-1.5009,-11.3992,-0.0010,0.1630,0.1940,48.0000,22.0167,-0.0300,100.0150,38.0105,-1.8455,3
-0.6376,-1.6088,-11.0951,-0.0050,0.1430,0.1960,48.0000,21.9834,-0.0400,100.0240,37.9123,-1.8464,3
-0.5886,-1.5205,-10.6340,0.0130,0.1240,0.1990,48.0000,22.0149,0.0200,100.0260,37.7628,-2.0960,3
-0.6082,-1.5304,-11.4679,0.0320,0.1680,0.1990,48.0000,21.9956,0.0600,100.0100,37.8961,-2.1356,3
-0.6180,-1.5304,-11.4679,0.0270,0.1710,0.1950,48.0000,21.9716,0.0300,100.0000,38.1370,-2.0509,3
-0.5690,-1.5500,-11.6150,0.0140,0.1680,0.1840,49.0000,21.9820,-0.0300,100.0040,38.2797,-1.8221,3
-0.5101,-1.5500,-10.8989,-0.0020,0.1290,0.1980,48.0000,22.0163,-0.0400,100.0290,38.0012,-1.8566,3
-0.5788,-1.6088,-11.1932,0.0060,0.1540,0.1930,48.0000,22.0277,0.0000,100.0390,37.8696,-1.9797,3
-0.5984,-1.5107,-11.4090,0.0200,0.1610,0.2060,48.0000,22.0472,0.0000,100.0420,37.8166,-1.9803,3
-0.5494,-1.5205,-11.0853,0.0140,0.1450,0.1860,48.0000,22.0166,-0.0100,100.0500,37.9150,-1.9672,3
-0.5788,-1.5402,-10.7714,0.0060,0.1370,0.1920,48.0000,21.9865,0.0600,100.0420,37.8762,-2.1391,3
-0.6376,-1.5696,-11.3207,0.0230,0.1610,0.1980,48.0000,21.9798,0.0700,100.0240,37.8957,-2.1715,3
-0.6082,-1.6186,-11.6445,0.0190,0.1690,0.1850,48.0000,21.9588,0.0000,100.0120,37.9853,-1.9063,3
-0.5199,-1.6383,-11.1932,0.0110,0.1570,0.1920,48.0000,21.9408,-0.0300,100.0210,38.0991,-1.8998,3
-0.5101,-1.5696,-10.7714,0.0010,0.1400,0.1890,48.0000,21.9490,0.0100,100.0310,38.0112,-2.0429,3
-0.5690,-1.5696,-11.2619,0.0170,0.1570,0.1920,48.0000,21.9863,0.0100,100.0330,37.9485,-2.0157,3
-0.6278,-1.5402,-11.3796,0.0180,0.1510,0.1890,48.0000,21.9516,-0.0100,100.0400,38.0372,-1.9255,3
-0.5297,-1.5107,-10.9480,0.0070,0.1430,0.2050,48.0000,21.9768,0.0000,100.0480,38.0519,-2.0622,3
-0.5690,-1.5107,-11.1736,0.0090,0.1470,0.2060,48.0000,21.9556,0.0500,100.0390,38.0344,-2.1898,3
-0.6180,-1.5205,-11.7524,0.0190,0.1680,0.1940,48.0000,21.9830,0.0200,100.0210,38.0074,-2.0547,3
-0.6082,-1.4911,-11.3698,0.0090,0.1610,0.1900,48.0000,21.9898,-0.0100,100.0190,38.0675,-1.9877,3
-0.6082,-1.4911,-11.2521,0.0000,0.1550,0.1900,48.0000,22.0107,-0.0100,100.0240,38.0643,-1.9813,3
-0.5984,-1.4911,-11.3404,0.0060,0.1640,0.2020,48.0000,22.0270,-0.0100,100.0260,37.9722,-2.0103,3
-0.6867,-1.4911,-11.1540,0.0160,0.1490,0.1980,48.0000,21.9745,-0.0200,100.0330,37.9705,-2.0219,3
-0.6278,-1.5990,-11.1245,-0.0030,0.1470,0.1870,48.0000,22.0019,-0.0100,100.0400,37.8859,-1.9738,3
-0.5690,-1.4911,-10.9185,0.0030,0.1370,0.1970,48.0000,21.9894,0.0100,100.0460,37.7376,-2.1096,3
-0.6376,-1.4323,-11.2521,0.0200,0.1590,0.1980,48.0000,21.9847,0.0700,100.0350,37.7196,-2.2561,3
-0.6082,-1.5009,-11.5954,0.0130,0.1730,0.1860,48.0000,21.9967,0.0400,100.0140,37.8389,-2.1525,3
-0.5788,-1.5500,-11.3992,0.0060,0.1560,0.1960,48.0000,21.9916,-0.0300,100.0040,37.7996,-1.9793,3
-0.5494,-1.4224,-11.0362,0.0170,0.1450,0.2070,48.0000,21.9811,0.0000,100.0120,37.7860,-2.1610,3
-0.5886,-1.5402,-11.3992,0.0140,0.1550,0.1920,48.0000,21.9866,0.0100,100.0140,37.7992,-2.1045,3
-0.5690,-1.5304,-11.3992,0.0020,0.1530,0.1980,48.0000,22.0227,-0.0300,100.0200,37.7787,-1.9886,3
-0.6082,-1.4911,-11.0853,0.0100,0.1430,0.1930,48.0000,21.9928,-0.0100,100.0300,37.7394,-2.0662,3
-0.5690,-1.5892,-11.1540,0.0030,0.1480,0.1900,48.0000,21.9735,0.0000,100.0290,37.6046,-2.0625,3
-0.6082,-1.4911,-11.1343,0.0130,0.1480,0.2060,48.0000,21.9438,0.0000,100.0230,37.5971,-2.1213,3
-0.6082,-1.5205,-10.9970,0.0120,0.1430,0.2040,48.0000,21.9628,0.0300,100.0150,37.6080,-2.2243,3
-0.5395,-1.5402,-11.2030,0.0250,0.1490,0.1890,48.0000,21.9802,0.0400,99.9930,37.6819,-2.2206,3
-0.6082,-1.4911,-11.3600,0.0220,0.1590,0.1980,48.0000,21.9695,0.0400,99.9720,37.8313,-2.1839,3
-0.5788,-1.5107,-11.7818,0.0170,0.1750,0.1890,48.0000,21.9817,-0.0100,99.9660,37.9233,-2.0000,3
-0.5395,-1.5402,-11.4483,0.0120,0.1610,0.1950,48.0000,21.9702,-0.0800,99.9850,37.9266,-1.8385,3
-0.5101,-1.5304,-10.9087,-0.0150,0.1320,0.1930,48.0000,21.9937,-0.0800,100.0160,37.7554,-1.8706,3
-0.5886,-1.5794,-10.9185,-0.0020,0.1430,0.1980,48.0000,21.9811,-0.0100,100.0310,37.5485,-2.0574,3
-0.5592,-1.4911,-11.0657,0.0350,0.1550,0.2000,48.0000,22.0035,0.0500,100.0230,37.7148,-2.2439,3
-0.5690,-1.5205,-11.3992,0.0140,0.1710,0.1970,48.0000,22.0094,0.0400,99.9970,37.9234,-2.1741,3
-0.5788,-1.5205,-11.3305,0.0140,0.1530,0.1880,48.0000,21.9801,0.0000,99.9810,37.8832,-2.0353,3
-0.6278,-1.5107,-11.5169,0.0060,0.1670,0.2010,48.0000,22.0099,-0.0100,99.9780,37.8843,-1.9932,3
-0.5690,-1.4715,-11.1540,0.0030,0.1410,0.1940,48.0000,22.0002,-0.0500,99.9930,37.8233,-1.9827,3
-0.5690,-1.6088,-10.9185,0.0090,0.1500,0.1920,48.0000,22.0090,0.0000,100.0070,37.7112,-2.0789,3
-0.6278,-1.5205,-11.1245,0.0150,0.1460,0.1890,48.0000,22.0410,0.0000,100.0130,37.7493,-2.1006,3
-0.5984,-1.5500,-11.3207,0.0130,0.1640,0.2000,48.0000,22.0275,0.0000,100.0130,37.7761,-2.0465,3
-0.5984,-1.5304,-11.1049,0.0080,0.1500,0.1860,48.0000,22.0337,-0.0100,100.0150,37.8296,-2.0253,3
-0.6180,-1.5598,-11.2128,-0.0030,0.1550,0.2030,48.0000,22.0131,0.0000,100.0070,37.6790,-2.0583,3
-0.5788,-1.4911,-11.1245,0.0130,0.1500,0.1950,48.0000,21.9949,0.0200,99.9960,37.7105,-2.1295,3
-0.5494,-1.4421,-11.2325,0.0230,0.1600,0.2010,48.0000,21.9732,0.0400,99.9780,37.8153,-2.1705,3
-0.5494,-1.5205,-11.6641,0.0110,0.1710,0.1870,48.0000,21.9924,0.0000,99.9570,37.9210,-2.0012,3
-0.5199,-1.5402,-11.3796,0.0160,0.1500,0.1940,49.0000,21.9736,-0.0500,99.9620,37.9743,-1.8732,3
-0.4905,-1.6186,-10.9872,0.0050,0.1390,0.1860,48.0000,21.9914,-0.0300,99.9770,37.8107,-1.9299,3
-0.5494,-1.5500,-10.9283,0.0150,0.1470,0.2020,48.0000,21.9600,0.0200,99.9770,37.7610,-2.1060,3
-0.5690,-1.5009,-11.1442,0.0230,0.1560,0.1950,48.0000,21.9797,0.0500,99.9650,37.8576,-2.1732,3
-0.5886,-1.5696,-11.5267,0.0060,0.1620,0.1890,49.0000,22.0202,0.0200,99.9490,37.9530,-2.0387,3
-0.5592,-1.5402,-11.6052,0.0030,0.1640,0.1900,48.0000,22.0437,-0.0200,99.9370,37.8990,-1.9006,3
-0.5984,-1.5990,-11.0755,0.0050,0.1350,0.1880,48.0000,22.0791,-0.0400,99.9400,37.8705,-1.8757,3
-0.5984,-1.5205,-11.0755,0.0120,0.1480,0.2030,48.0000,22.0534,-0.0100,99.9460,37.7938,-1.9862,3
-0.6180,-1.4715,-11.3894,0.0270,0.1640,0.1880,48.0000,22.0229,0.0000,99.9520,37.9136,-2.0159,3
-0.5984,-1.4813,-11.4875,0.0110,0.1620,0.1900,48.0000,22.0507,-0.0400,99.9650,38.0465,-1.8541,3
-0.5690,-1.5402,-11.1245,-0.0010,0.1440,0.1940,48.0000,22.0093,-0.0600,99.9880,37.9013,-1.8181,3
-0.5886,-1.5107,-11.0166,0.0030,0.1400,0.1980,48.0000,22.0036,-0.0300,100.0070,37.7269,-1.9125,3
-0.5886,-1.4617,-11.1147,0.0190,0.1580,0.1970,48.0000,22.0091,0.0000,100.0130,37.7454,-2.0291,3
-0.6278,-1.4323,-11.1049,0.0060,0.1400,0.2020,48.0000,22.0158,0.0100,100.0060,37.7773,-2.0584,3
-0.5494,-1.4911,-11.0559,0.0150,0.1450,0.1810,48.0000,21.9912,0.0700,99.9870,37.8621,-2.1737,3
-0.5788,-1.6186,-11.7524,0.0110,0.1770,0.1980,48.0000,22.0261,0.0100,99.9710,37.8182,-1.9651,3
-0.5984,-1.4421,-11.3992,0.0190,0.1530,0.2040,48.0000,22.0307,-0.0600,99.9840,37.9495,-1.8447,3
-0.6573,-1.4715,-10.8989,0.0030,0.1380,0.1940,48.0000,21.9979,-0.0300,100.0010,37.9898,-1.9006,3
-0.5494,-1.5304,-11.1147,-0.0020,0.1510,0.2040,48.0000,22.0257,0.0100,100.0080,37.8009,-2.0333,3
-0.6180,-1.5598,-11.2717,0.0090,0.1580,0.1890,48.0000,22.0390,0.0100,100.0120,37.7255,-2.0114,3
-0.6082,-1.5696,-11.2423,0.0300,0.1560,0.1840,48.0000,22.0180,0.0100,100.0120,37.8058,-2.0239,3
-0.6376,-1.4911,-11.3600,0.0130,0.1540,0.1950,48.0000,21.9860,0.0100,100.0050,37.8969,-2.0335,3
-0.5494,-1.5107,-11.3698,0.0110,0.1650,0.1920,48.0000,21.9573,0.0200,99.9930,37.9362,-2.0254,3
-0.5297,-1.5402,-11.1343,0.0000,0.1510,0.2000,48.0000,21.9731,0.0000,99.9860,37.8701,-2.0174,3
-0.5395,-1.4519,-11.2423,0.0300,0.1620,0.1930,48.0000,21.9886,0.0100,99.9850,37.9903,-2.0557,3
-0.5592,-1.5205,-11.5856,0.0220,0.1730,0.1960,48.0000,22.0122,-0.0400,99.9960,38.1433,-1.8280,3
-0.5788,-1.4911,-10.9578,0.0000,0.1380,0.1900,48.0000,22.0178,-0.0600,100.0210,38.2306,-1.8332,3
-0.6082,-1.5794,-11.1049,-0.0040,0.1460,0.1940,48.0000,21.9988,-0.0400,100.0380,37.9179,-1.8783,3
-0.5984,-1.6186,-10.6733,0.0140,0.1260,0.1940,48.0000,22.0113,0.0000,100.0450,37.8130,-2.0404,3
-0.6278,-1.5696,-10.8989,0.0220,0.1400,0.1930,48.0000,22.0104,0.0900,100.0240,38.0241,-2.2166,3
-0.6475,-1.5500,-11.3404,0.0080,0.1610,0.2040,48.0000,21.9701,0.1000,99.9900,38.1125,-2.2481,3
-0.5984,-1.5500,-11.9290,0.0250,0.1810,0.1970,49.0000,21.9464,0.0200,99.9620,38.2436,-1.9899,3
-0.5003,-1.5696,-11.3502,-0.0020,0.1560,0.1960,49.0000,21.9890,-0.0400,99.9650,38.3309,-1.8139,3
-0.5199,-1.5794,-10.9872,-0.0010,0.1380,0.1880,49.0000,22.0073,-0.0500,99.9850,38.0670,-1.8366,3
-0.5395,-1.5009,-10.9185,0.0100,0.1370,0.2070,48.0000,22.0411,-0.0200,99.9990,37.8968,-1.9551,3
-0.6376,-1.4715,-10.9578,0.0090,0.1420,0.1860,48.0000,22.0047,0.0500,100.0060,37.9122,-2.1516,3
-0.6278,-1.5304,-11.6347,0.0290,0.1690,0.2010,48.0000,22.0017,0.0200,100.0020,38.0422,-1.9969,3
-0.6180,-1.5402,-11.4286,0.0000,0.1630,0.1920,48.0000,21.9952,-0.0200,100.0050,38.0529,-1.8808,3
-0.5494,-1.5205,-11.0657,-0.0050,0.1350,0.2010,48.0000,22.0075,-0.0400,100.0080,37.8123,-1.8821,3
-0.6475,-1.5500,-10.7321,0.0120,0.1400,0.1940,48.0000,22.0022,0.0300,100.0030,37.7171,-2.1637,3
-0.5788,-1.5598,-11.3894,0.0310,0.1630,0.1750,48.0000,22.0308,0.0300,99.9830,37.9427,-2.0388,3
-0.5886,-1.5598,-11.1540,0.0370,0.1540,0.1940,48.0000,22.0217,0.0100,99.9720,38.2329,-1.9971,3
-0.5984,-1.5402,-11.3894,0.0010,0.1600,0.2040,48.0000,22.0357,0.0000,99.9710,38.2438,-1.9537,3
-0.6180,-1.6186,-11.2521,0.0000,0.1490,0.1920,48.0000,22.0181,-0.0400,99.9800,38.0627,-1.8016,3
-0.6082,-1.6186,-11.0166,-0.0020,0.1390,0.1940,48.0000,22.0133,-0.0500,99.9970,37.9423,-1.8046,3
-0.5984,-1.4519,-11.0068,0.0180,0.1480,0.2130,48.0000,22.0357,0.0100,100.0020,37.8469,-2.0476,3
-0.6769,-1.4323,-11.0166,0.0280,0.1500,0.1960,48.0000,22.0108,0.0600,99.9860,37.9458,-2.1883,3
-0.6082,-1.5598,-11.5267,0.0100,0.1680,0.1950,48.0000,22.0139,0.0400,99.9650,38.0632,-2.0075,3
-0.5395,-1.4617,-11.3404,0.0080,0.1620,0.1930,48.0000,21.9977,0.0000,99.9590,38.0924,-1.9748,3
-0.6082,-1.4715,-11.3894,0.0100,0.1540,0.1920,48.0000,21.9719,-0.0400,99.9650,38.0876,-1.8736,3
-0.5984,-1.5402,-11.2325,0.0010,0.1520,0.1870,48.0000,21.9924,-0.0300,99.9810,37.9795,-1.8629,3
-0.5199,-1.5304,-10.9185,0.0000,0.1500,0.2010,48.0000,22.0184,0.0000,99.9960,37.8642,-1.9843,3
-0.6082,-1.5598,-11.2521,0.0140,0.1500,0.1990,48.0000,21.9776,0.0000,100.0010,37.8168,-2.0222,3
-0.5592,-1.4715,-11.3698,0.0000,0.1610,0.1940,48.0000,21.9982,0.0000,100.0000,37.9245,-2.0034,3
-0.5395,-1.5009,-11.4090,0.0080,0.1580,0.1920,48.0000,22.0018,-0.0200,100.0000,37.8555,-1.8938,3
-0.5297,-1.5009,-11.0755,0.0030,0.1390,0.1990,48.0000,22.0095,-0.0100,100.0010,37.7216,-1.9903,3
-0.5886,-1.5892,-11.0068,0.0110,0.1530,0.1790,48.0000,21.9882,0.0500,99.9900,37.7567,-2.1189,3
-0.6278,-1.5598,-11.3502,0.0190,0.1500,0.1880,48.0000,22.0289,0.0000,99.9790,37.8739,-2.0214,3
-0.5788,-1.5205,-11.5366,0.0160,0.1670,0.2000,48.0000,21.9873,-0.0100,99.9850,37.9563,-1.9342,3
-0.5886,-1.5696,-11.3207,0.0030,0.1550,0.1960,48.0000,21.9696,-0.0700,100.0050,37.9656,-1.7687,3
-0.5690,-1.5402,-10.8793,-0.0060,0.1370,0.2000,48.0000,22.0021,-0.0300,100.0270,37.8502,-1.9396,3
-0.5984,-1.5205,-10.8008,0.0100,0.1340,0.2000,48.0000,22.0218,0.0200,100.0300,37.6590,-2.1157,3
-0.6573,-1.4813,-11.4973,0.0210,0.1680,0.1930,48.0000,21.9969,0.0500,100.0130,37.6769,-2.1185,3
-0.5984,-1.4715,-11.4090,0.0090,0.1610,0.1910,48.0000,22.0038,0.0100,99.9940,37.8348,-2.0298,3
-0.5984,-1.4617,-11.3011,0.0100,0.1450,0.1970,48.0000,21.9927,0.0000,99.9850,37.8664,-2.0286,3
-0.6082,-1.5500,-11.1147,0.0060,0.1470,0.1910,48.0000,21.9853,0.0300,99.9730,37.7473,-2.0841,3
-0.6278,-1.4519,-11.4286,0.0270,0.1680,0.1900,48.0000,22.0090,0.0100,99.9670,37.7461,-2.0136,3
-0.5788,-1.5107,-11.2717,0.0190,0.1500,0.1870,48.0000,21.9934,-0.0300,99.9780,37.8866,-1.8757,3
-0.5690,-1.5794,-11.1245,0.0000,0.1450,0.1980,48.0000,21.9736,-0.0400,100.0000,37.8212,-1.8619,3
-0.5690,-1.5696,-11.1343,0.0060,0.1500,0.1950,48.0000,21.9617,-0.0100,100.0180,37.6295,-1.9356,3
-0.6278,-1.5205,-10.8891,0.0260,0.1360,0.1970,48.0000,21.9382,0.0000,100.0240,37.6722,-2.0447,3
-0.5886,-1.5598,-11.3600,0.0070,0.1620,0.1950,48.0000,21.9784,0.0200,100.0090,37.7181,-2.0407,3
-0.5199,-1.5205,-11.3698,0.0160,0.1490,0.1890,48.0000,21.9965,0.0200,100.0010,37.7434,-2.0691,3
-0.5788,-1.4519,-11.3502,0.0150,0.1640,0.1990,48.0000,21.9902,0.0300,99.9890,37.8008,-2.0980,3
-0.6180,-1.5009,-11.5464,0.0310,0.1720,0.1990,48.0000,21.9843,0.0000,99.9860,37.9777,-2.0014,3
-0.5886,-1.5304,-11.0264,0.0050,0.1370,0.1810,48.0000,22.0002,-0.0500,100.0020,37.9888,-1.8478,3
-0.5788,-1.5598,-10.9185,-0.0020,0.1360,0.2050,48.0000,21.9947,-0.0200,100.0200,37.7159,-1.9530,3
-0.6082,-1.4519,-11.1245,0.0110,0.1440,0.1940,48.0000,21.9702,0.0100,100.0220,37.7349,-2.0725,3
-0.6573,-1.5205,-11.1049,0.0300,0.1480,0.1920,48.0000,21.9844,0.0300,100.0150,37.8642,-2.1088,3
-0.5003,-1.5892,-11.2913,0.0070,0.1580,0.1920,48.0000,21.9723,0.0200,100.0000,37.7835,-2.0461,3
-0.5297,-1.5107,-11.3796,0.0030,0.1560,0.2040,48.0000,22.0004,0.0000,99.9890,37.8044,-2.0491,3
-0.5199,-1.5402,-11.3011,0.0160,0.1480,0.1930,48.0000,21.9887,0.0000,99.9820,37.8166,-2.0515,3
-0.5690,-1.4323,-11.4286,0.0230,0.1600,0.1920,48.0000,22.0268,-0.0100,99.9750,37.8881,-1.9993,3
-0.5984,-1.5794,-11.2619,0.0280,0.1530,0.1920,48.0000,22.0443,-0.0400,99.9820,38.0070,-1.9024,3
-0.6082,-1.5402,-10.8695,0.0120,0.1360,0.1940,48.0000,22.0148,-0.0200,99.9940,38.0444,-1.9515,3
-0.5886,-1.6186,-11.2521,0.0000,0.1560,0.1990,48.0000,22.0277,0.0200,99.9960,37.9124,-2.0216,3
-0.6278,-1.5205,-11.6150,0.0170,0.1720,0.2000,48.0000,22.0493,-0.0200,99.9980,37.8976,-1.9550,3
-0.6278,-1.5009,-11.2128,0.0090,0.1540,0.1860,48.0000,22.0159,-0.0400,100.0070,38.0253,-1.8865,3
-0.6082,-1.5107,-11.1638,-0.0090,0.1440,0.2130,48.0000,21.9818,-0.0400,100.0050,37.8555,-1.9118,3
-0.6180,-1.5696,-11.0951,0.0140,0.1440,0.1940,48.0000,22.0153,0.0000,99.9940,37.6735,-2.0154,3
-0.5395,-1.4813,-10.8793,0.0250,0.1410,0.1960,48.0000,22.0046,0.0300,99.9780,37.8227,-2.1436,3
-0.6180,-1.3636,-11.6837,0.0310,0.1740,0.1940,48.0000,22.0182,0.0100,99.9660,38.0658,-2.0438,3
-0.5494,-1.4715,-11.5954,0.0050,0.1740,0.1920,48.0000,22.0282,-0.0300,99.9690,38.1337,-1.8569,3
-0.5886,-1.5107,-11.2717,0.0030,0.1460,0.1990,48.0000,22.0305,-0.0900,99.9920,37.9425,-1.7546,3
-0.6180,-1.5990,-10.7714,-0.0040,0.1300,0.1870,48.0000,22.0162,-0.0300,100.0080,37.7311,-1.8980,3
-0.6180,-1.5304,-11.0166,0.0080,0.1450,0.1970,48.0000,21.9699,0.0200,100.0020,37.5168,-2.0820,3
-0.6475,-1.4421,-11.3109,0.0300,0.1530,0.1980,48.0000,21.9794,0.0300,99.9900,37.6616,-2.1256,3
-0.5886,-1.5009,-11.3207,0.0130,0.1590,0.1820,48.0000,22.0207,0.0500,99.9690,38.0121,-2.0820,3
-0.5592,-1.5794,-11.2619,0.0050,0.1530,0.2000,48.0000,22.0248,0.0500,99.9490,37.9483,-2.0715,3
-0.6278,-1.5500,-11.6445,0.0120,0.1720,0.2070,48.0000,22.0444,0.0000,99.9300,37.9813,-1.9145,3
-0.5297,-1.4126,-11.4483,0.0220,0.1660,0.1950,48.0000,22.0724,-0.0400,99.9380,38.1159,-1.8318,3
-0.5199,-1.5500,-10.8793,0.0030,0.1400,0.1910,48.0000,22.0701,-0.0200,99.9560,38.1185,-1.8620,3
-0.5984,-1.5402,-11.3207,0.0050,0.1600,0.1940,48.0000,22.0861,0.0000,99.9660,37.9153,-1.9418,3
-0.6475,-1.6088,-11.2325,0.0110,0.1530,0.1940,48.0000,22.0509,0.0000,99.9720,37.9221,-1.9086,3
-0.6769,-1.5696,-11.3502,0.0090,0.1600,0.1970,48.0000,22.0347,-0.0100,99.9730,37.9528,-1.8739,3
-0.5494,-1.5402,-11.0362,0.0060,0.1430,0.1870,48.0000,22.0220,0.0000,99.9650,37.9182,-1.9273,3
-0.5592,-1.5304,-10.9774,0.0230,0.1410,0.2110,48.0000,22.0125,0.0300,99.9510,37.9787,-2.0536,3
-0.6082,-1.5500,-11.5169,0.0200,0.1710,0.1940,49.0000,21.9993,0.0300,99.9350,38.1244,-1.9794,3
-0.5788,-1.5990,-11.9093,0.0150,0.1860,0.1950,49.0000,22.0351,-0.0500,99.9450,38.1631,-1.6962,3
-0.5592,-1.5304,-11.1540,0.0000,0.1480,0.1870,48.0000,22.0464,-0.0900,99.9800,38.2668,-1.6510,3
-0.5690,-1.6481,-10.5850,-0.0060,0.1290,0.1890,48.0000,22.0277,-0.0100,100.0000,38.0542,-1.8320,3
-0.6278,-1.5990,-11.0657,0.0090,0.1480,0.2140,48.0000,22.0429,0.0300,99.9980,37.7652,-2.0061,3
-0.6769,-1.3930,-11.4973,0.0290,0.1690,0.1980,48.0000,22.0211,0.0200,99.9850,37.9663,-2.0133,3
-0.6082,-1.5205,-11.4090,0.0120,0.1750,0.1830,48.0000,22.0495,0.0200,99.9660,38.2423,-1.8987,3
-0.5494,-1.6481,-11.5071,-0.0110,0.1610,0.1960,48.0000,22.0040,-0.0200,99.9540,37.9367,-1.7298,3
-0.5788,-1.5598,-11.0461,0.0020,0.1500,0.2050,48.0000,22.0044,-0.0300,99.9550,37.7762,-1.8556,3
-0.5886,-1.4617,-11.0951,0.0210,0.1530,0.1970,48.0000,22.0004,0.0100,99.9580,37.8838,-1.9648,3
-0.6475,-1.4617,-11.5562,0.0250,0.1680,0.1860,48.0000,21.9945,-0.0300,99.9660,38.0658,-1.8044,3
-0.5494,-1.5696,-11.1049,0.0000,0.1400,0.2040,48.0000,22.0263,-0.0600,99.9850,38.0725,-1.7205,3
-0.5788,-1.5009,-11.0853,-0.0010,0.1440,0.1970,48.0000,22.0547,0.0000,100.0000,37.8550,-1.8817,3
-0.6180,-1.5304,-11.1834,0.0110,0.1530,0.1960,48.0000,22.0567,0.0100,100.0030,37.8178,-1.9276,3
-0.6867,-1.5009,-11.2913,0.0250,0.1520,0.1980,48.0000,22.0054,0.0000,99.9960,37.8883,-1.8716,3
-0.6180,-1.5892,-11.4581,-0.0030,0.1580,0.1840,48.0000,22.0147,-0.0100,99.9890,37.9369,-1.8136,3
-0.5494,-1.5205,-11.0657,0.0140,0.1390,0.1960,48.0000,22.0100,0.0100,99.9780,37.9585,-1.9473,3
-0.6180,-1.4617,-11.0755,0.0100,0.1500,0.1850,48.0000,21.9967,0.0700,99.9620,37.9596,-2.0857,3
-0.5984,-1.4519,-11.7622,0.0260,0.1810,0.2070,48.0000,21.9850,0.0300,99.9500,38.0381,-1.9136,3
-0.5297,-1.5304,-11.2717,0.0110,0.1460,0.1860,49.0000,21.9920,-0.0500,99.9600,38.1175,-1.7357,3
-0.5297,-1.6088,-11.0657,-0.0160,0.1480,0.1940,48.0000,21.9985,-0.0300,99.9790,37.8530,-1.7631,3
-0.6180,-1.5402,-10.9480,0.0140,0.1410,0.2020,48.0000,22.0290,0.0000,99.9840,37.6577,-1.9126,3
-0.5984,-1.5205,-11.2521,0.0220,0.1590,0.1880,48.0000,21.9982,0.0200,99.9750,37.8424,-1.9545,3
-0.5984,-1.5107,-11.3207,0.0030,0.1580,0.1960,48.0000,22.0015,0.0000,99.9670,37.9227,-1.8974,3
-0.5886,-1.5402,-11.4483,0.0060,0.1560,0.1900,48.0000,22.0135,-0.0100,99.9590,37.8935,-1.8387,3
-0.5199,-1.5500,-11.1540,0.0170,0.1450,0.1990,48.0000,21.9814,-0.0100,99.9650,37.9511,-1.8458,3
-0.5886,-1.5009,-11.1147,0.0310,0.1520,0.1920,48.0000,21.9993,0.0000,99.9710,38.0419,-1.8804,3
-0.5690,-1.4715,-11.3600,0.0090,0.1610,0.2060,48.0000,21.9956,0.0000,99.9750,38.1391,-1.8518,3
-0.5886,-1.4519,-11.5267,0.0000,0.1600,0.1860,48.0000,22.0024,-0.0300,99.9830,38.0256,-1.7295,3
-0.5886,-1.6285,-10.9774,-0.0030,0.1390,0.1950,48.0000,22.0035,-0.0300,99.9940,37.8315,-1.7709,3
-0.5886,-1.5892,-10.8793,0.0190,0.1430,0.1910,48.0000,22.0185,0.0100,99.9990,37.8196,-1.9276,3
-0.5494,-1.4617,-11.3404,0.0210,0.1670,0.2020,48.0000,21.9979,0.0400,99.9880,37.8667,-1.9931,3
-0.5984,-1.4617,-11.3305,0.0210,0.1630,0.1980,48.0000,22.0151,0.0100,99.9710,38.0626,-1.8968,3
-0.5886,-1.4519,-11.2619,0.0150,0.1510,0.1900,48.0000,22.0417,0.0100,99.9560,38.0464,-1.9257,3
-0.5297,-1.5794,-11.4188,0.0200,0.1580,0.1820,48.0000,22.0239,0.0000,99.9480,38.1276,-1.8114,3
-0.5395,-1.5598,-11.2423,0.0230,0.1500,0.2030,48.0000,22.0146,-0.0100,99.9500,38.1590,-1.8296,3
-0.5297,-1.4715,-11.6150,0.0030,0.1610,0.1980,48.0000,22.0294,-0.0500,99.9560,38.0677,-1.6730,3
-0.5690,-1.5205,-11.0657,-0.0110,0.1380,0.1970,48.0000,22.0565,-0.0700,99.9750,37.8884,-1.6963,3
-0.6376,-1.5500,-11.1638,0.0050,0.1470,0.1830,48.0000,22.0236,-0.0500,99.9870,37.7286,-1.7186,3
-0.5592,-1.5696,-10.8400,0.0120,0.1340,0.1940,48.0000,22.0471,-0.0100,99.9880,37.6762,-1.8587,3
-0.5690,-1.5009,-11.1442,0.0210,0.1530,0.1950,48.0000,22.0166,0.0600,99.9710,37.8329,-2.0352,3
-0.5788,-1.5402,-11.5464,0.0250,0.1710,0.1920,48.0000,22.0170,0.0500,99.9510,37.9556,-1.9782,3
-0.5886,-1.5304,-11.5267,0.0110,0.1600,0.1870,48.0000,22.0126,-0.0100,99.9470,38.1048,-1.8018,3
-0.5494,-1.5402,-11.3404,-0.0010,0.1580,0.2010,48.0000,22.0255,-0.0300,99.9600,38.0653,-1.7318,3
-0.5788,-1.5892,-11.1638,0.0020,0.1490,0.1990,48.0000,22.0098,-0.0200,99.9790,37.9135,-1.7702,3
-0.6082,-1.5402,-11.5267,0.0020,0.1680,0.1950,48.0000,21.9612,-0.0600,99.9970,37.8046,-1.6276,3
-0.5886,-1.4617,-10.7223,0.0040,0.1200,0.1980,48.0000,22.0043,-0.0500,100.0240,37.7895,-1.7908,3
-0.5788,-1.5402,-10.8695,0.0110,0.1500,0.1890,48.0000,21.9671,0.0700,100.0230,37.6855,-2.0492,3
-0.6180,-1.4813,-11.6935,0.0250,0.1730,0.1940,48.0000,21.9812,0.0300,100.0000,37.7970,-1.9137,3
-0.5788,-1.4519,-11.4090,0.0260,0.1590,0.1950,48.0000,21.9678,-0.0300,100.0020,38.0500,-1.7625,3
-0.5984,-1.5402,-11.0461,-0.0160,0.1380,0.2020,48.0000,21.9801,-0.0200,100.0140,37.8795,-1.8177,3
-0.5395,-1.4519,-10.9578,0.0080,0.1400,0.1940,48.0000,21.9801,0.0200,100.0180,37.7316,-1.9936,3
-0.5788,-1.5598,-11.3404,0.0180,0.1620,0.1950,48.0000,21.9919,0.0300,100.0150,37.7957,-1.9586,3
-0.6278,-1.5205,-11.3502,0.0140,0.1470,0.1950,48.0000,22.0187,-0.0100,100.0160,37.8593,-1.8400,3
-0.5886,-1.5598,-11.0461,0.0040,0.1410,0.1950,48.0000,22.0114,0.0100,100.0170,37.8359,-1.9025,3
-0.6376,-1.6677,-11.3404,0.0000,0.1560,0.1950,48.0000,21.9670,0.0000,100.0140,37.7404,-1.8149,3
-0.5592,-1.5794,-10.8989,0.0100,0.1270,0.1900,48.0000,21.9759,0.0000,100.0090,37.6643,-1.9014,3
-0.5592,-1.6186,-11.0853,0.0260,0.1490,0.1930,48.0000,21.9714,0.0600,99.9880,37.7556,-2.0127,3
-0.5788,-1.4715,-11.2128,0.0340,0.1590,0.1920,48.0000,21.9975,0.0600,99.9600,38.0558,-2.0809,3
-0.5395,-1.5598,-11.6837,0.0060,0.1720,0.1980,49.0000,21.9955,0.0100,99.9460,38.2321,-1.8518,3
-0.5395,-1.5500,-11.7818,0.0090,0.1750,0.2020,49.0000,21.9993,-0.0700,99.9600,38.2723,-1.5811,3
-0.5101,-1.5107,-10.9185,0.0000,0.1340,0.1910,48.0000,22.0066,-0.1000,99.9910,38.0943,-1.6104,3
-0.5494,-1.5696,-10.6635,0.0030,0.1310,0.2030,48.0000,22.0019,0.0000,100.0090,37.8924,-1.8755,3
-0.5886,-1.5794,-10.9872,0.0260,0.1510,0.2080,48.0000,21.9989,0.0500,100.0000,37.8726,-2.0174,3
-0.5886,-1.4813,-11.3894,0.0250,0.1690,0.1990,48.0000,22.0496,0.0600,99.9720,38.0263,-2.0140,3
-0.6180,-1.5990,-11.6150,0.0150,0.1760,0.1910,48.0000,22.0404,0.0000,99.9570,38.1999,-1.7659,3
-0.5690,-1.6186,-11.4679,0.0020,0.1540,0.1930,48.0000,22.0103,-0.0900,99.9660,38.2204,-1.5638,3
-0.5690,-1.5500,-10.6831,-0.0060,0.1220,0.2050,48.0000,22.0308,-0.0500,99.9890,37.9995,-1.7514,3
-0.5886,-1.5402,-10.9578,0.0180,0.1480,0.1930,48.0000,22.0328,0.0400,99.9940,38.0091,-1.9605,3
-0.6376,-1.5304,-11.5169,0.0250,0.1640,0.2030,48.0000,22.0154,0.0300,99.9870,38.1941,-1.9041,3
-0.6475,-1.5696,-11.4875,0.0040,0.1570,0.1920,48.0000,22.0229,-0.0300,99.9930,38.2158,-1.6710,3
-0.5199,-1.5009,-10.8400,0.0020,0.1370,0.2070,48.0000,21.9971,-0.0100,100.0060,38.0531,-1.8029,3
-0.5788,-1.4911,-11.2619,-0.0040,0.1520,0.1920,48.0000,21.9960,0.0300,100.0030,37.8409,-1.9196,3
-0.6278,-1.4813,-11.6935,0.0130,0.1700,0.1950,48.0000,22.0311,0.0000,99.9940,37.8076,-1.8011,3
-0.5788,-1.4911,-11.0951,0.0190,0.1410,0.2000,48.0000,22.0010,-0.0200,99.9950,37.8613,-1.8068,3
-0.6867,-1.5304,-10.8106,0.0170,0.1300,0.1960,48.0000,21.9995,0.0300,99.9880,37.9739,-1.9518,3
-0.5788,-1.6186,-11.2521,0.0080,0.1490,0.1940,48.0000,22.0087,0.0800,99.9670,37.9114,-2.0046,3
-0.5984,-1.4519,-11.5954,0.0230,0.1720,0.2050,48.0000,21.9862,0.0400,99.9520,37.9986,-1.9224,3
-0.6082,-1.4126,-11.5169,0.0050,0.1550,0.1970,49.0000,22.0180,-0.0300,99.9560,38.1297,-1.6984,3
-0.5886,-1.5990,-10.9381,-0.0160,0.1440,0.1870,48.0000,22.0279,0.0000,99.9690,37.9322,-1.7666,3
-0.5690,-1.5009,-11.1540,0.0060,0.1490,0.2030,48.0000,22.0465,0.0100,99.9740,37.6706,-1.8660,3
-0.6278,-1.5304,-11.5464,0.0210,0.1630,0.1790,48.0000,22.0418,0.0000,99.9670,37.8040,-1.7557,3
-0.5984,-1.4813,-11.1834,0.0020,0.1520,0.2000,48.0000,22.0546,-0.0100,99.9630,37.8936,-1.7566,3
-0.5690,-1.4421,-11.0166,0.0170,0.1490,0.1980,48.0000,22.0315,0.0100,99.9620,37.8816,-1.8729,3
-0.6475,-1.4126,-11.4581,0.0220,0.1590,0.1900,48.0000,22.0379,0.0000,99.9620,37.9615,-1.8238,3
-0.6278,-1.4715,-11.5169,0.0080,0.1600,0.1910,48.0000,22.0437,-0.0400,99.9700,37.9398,-1.6580,3
-0.5886,-1.6088,-10.9676,-0.0010,0.1340,0.1880,48.0000,22.0105,-0.0600,99.9960,37.8169,-1.6096,3
-0.5984,-1.5107,-10.8597,0.0060,0.1350,0.1970,48.0000,22.0026,-0.0100,100.0120,37.6922,-1.7899,3
-0.5886,-1.4813,-11.0068,0.0160,0.1430,0.1900,48.0000,22.0079,0.0300,100.0090,37.7197,-1.9170,3
-0.6278,-1.4519,-11.4385,0.0170,0.1590,0.1960,48.0000,21.9964,0.0100,99.9970,37.7460,-1.8573,3
-0.5297,-1.4519,-11.1540,0.0080,0.1400,0.1970,48.0000,21.9671,-0.0100,99.9850,37.7134,-1.7946,3
-0.5690,-1.5205,-11.1932,0.0100,0.1510,0.1940,48.0000,21.9953,0.0100,99.9740,37.6723,-1.8548,3
-0.5690,-1.5205,-11.2913,0.0210,0.1480,0.1960,48.0000,22.0092,0.0000,99.9700,37.6437,-1.7832,3
-0.5984,-1.5009,-11.1638,0.0280,0.1530,0.1990,48.0000,21.9719,0.0000,99.9780,37.8543,-1.8430,3
-0.5984,-1.4715,-11.2619,0.0240,0.1520,0.1990,48.0000,21.9662,0.0000,99.9860,38.0198,-1.8007,3
-0.5690,-1.5402,-11.2030,-0.0020,0.1440,0.1960,48.0000,21.9592,-0.0100,99.9960,37.9136,-1.7417,3
-0.5592,-1.5892,-11.0264,0.0100,0.1430,0.1890,48.0000,21.9363,0.0100,100.0000,37.8349,-1.8026,3
-0.5592,-1.4911,-11.2717,0.0240,0.1560,0.1920,48.0000,21.9670,0.0200,99.9890,37.8580,-1.8539,3
-0.5101,-1.5402,-11.3011,0.0120,0.1580,0.1960,48.0000,21.9946,0.0300,99.9710,37.9713,-1.8434,3
-0.5494,-1.5009,-11.3011,0.0050,0.1560,0.1900,49.0000,21.9804,0.0200,99.9510,37.9574,-1.8266,3
-0.6278,-1.5205,-11.6445,0.0160,0.1610,0.1940,49.0000,22.0283,-0.0500,99.9420,37.9881,-1.6404,3
-0.5886,-1.5500,-10.8793,0.0250,0.1370,0.1840,48.0000,22.0608,-0.0300,99.9580,38.0516,-1.7044,3
-0.5395,-1.5892,-11.0853,0.0130,0.1510,0.1970,48.0000,22.0408,0.0100,99.9660,37.9287,-1.7815,3
-0.6278,-1.5402,-11.5660,0.0200,0.1700,0.1950,48.0000,22.0122,-0.0200,99.9750,37.9592,-1.6924,3
-0.5886,-1.5402,-11.0362,0.0170,0.1390,0.1920,48.0000,21.9838,-0.0500,99.9980,38.1214,-1.6724,3
-0.5592,-1.6775,-10.9381,-0.0050,0.1390,0.1930,48.0000,21.9893,0.0000,100.0060,37.9392,-1.7595,3
-0.6475,-1.5205,-11.2030,0.0110,0.1540,0.2010,48.0000,22.0056,0.0500,99.9920,37.8034,-1.9176,3
-0.6180,-1.4519,-11.6543,0.0360,0.1680,0.2030,48.0000,21.9934,0.0200,99.9750,38.0153,-1.8475,3
-0.5592,-1.5598,-11.3600,0.0250,0.1530,0.1830,48.0000,21.9992,0.0000,99.9660,38.2410,-1.7762,3
-0.5592,-1.5402,-11.5071,0.0000,0.1650,0.1930,49.0000,22.0351,0.0000,99.9670,38.1978,-1.7026,3
-0.5886,-1.5009,-11.3894,0.0000,0.1540,0.1960,48.0000,22.0023,-0.0200,99.9760,38.0354,-1.7082,3
-0.5886,-1.4519,-11.3992,0.0060,0.1500,0.2030,48.0000,22.0014,-0.0500,99.9890,37.9521,-1.6665,3
-0.6278,-1.5205,-10.8695,0.0010,0.1390,0.1840,48.0000,22.0385,0.0000,100.0010,37.9838,-1.7828,3
-0.5984,-1.5205,-11.1049,0.0210,0.1600,0.2100,48.0000,22.0562,0.0300,99.9990,37.8578,-1.8482,3
-0.6180,-1.4911,-11.2128,0.0190,0.1520,0.2000,48.0000,22.0612,0.0000,99.9970,37.8977,-1.8032,3
-0.6475,-1.4715,-11.3698,0.0040,0.1600,0.1890,48.0000,22.0378,0.0100,99.9900,37.9211,-1.8059,3
-0.6180,-1.5009,-11.2325,0.0130,0.1520,0.1950,48.0000,22.0280,-0.0200,99.9870,38.0253,-1.7236,3
-0.6180,-1.5892,-11.1245,0.0010,0.1480,0.1960,48.0000,22.0255,-0.0200,99.9930,37.9883,-1.6985,3
-0.6082,-1.5500,-10.8597,0.0160,0.1380,0.1940,48.0000,21.9994,0.0300,100.0000,37.9844,-1.8970,3
-0.6376,-1.5696,-11.6052,0.0210,0.1800,0.1930,48.0000,21.9736,0.0300,99.9950,38.0329,-1.7876,3
-0.6376,-1.5205,-11.3207,0.0050,0.1470,0.1940,48.0000,21.9875,-0.0500,100.0050,38.0824,-1.5730,3
-0.5690,-1.5500,-10.6831,-0.0100,0.1290,0.2000,48.0000,21.9575,0.0000,100.0160,37.8350,-1.8174,3
-0.5788,-1.5598,-11.2913,0.0210,0.1590,0.1910,48.0000,22.0280,0.0500,100.0000,37.8216,-1.9013,3
-0.6376,-1.5304,-11.3109,0.0230,0.1510,0.1970,48.0000,22.0247,0.0400,99.9780,37.9661,-1.8774,3
-0.5788,-1.4323,-11.6543,0.0190,0.1760,0.2080,48.0000,22.0121,0.0300,99.9570,38.1202,-1.8667,3
-0.6278,-1.4126,-11.8603,0.0100,0.1770,0.1880,48.0000,22.0206,-0.0300,99.9530,38.2850,-1.6477,3
-0.5788,-1.5107,-11.0559,-0.0120,0.1450,0.1980,48.0000,22.0068,-0.0700,99.9730,38.0533,-1.5985,3
-0.6180,-1.4715,-10.9381,0.0050,0.1380,0.2060,48.0000,22.0263,-0.0200,99.9900,37.8418,-1.7693,3
-0.6278,-1.5009,-11.2423,0.0150,0.1580,0.1900,48.0000,22.0316,0.0100,99.9950,37.8606,-1.8283,3
-0.6573,-1.5304,-11.2913,0.0110,0.1530,0.1960,48.0000,22.0309,0.0000,99.9960,37.8216,-1.7775,3
-0.6867,-1.5402,-11.4090,0.0070,0.1590,0.1980,48.0000,22.0304,-0.0100,100.0010,37.7861,-1.7037,3
-0.6573,-1.5205,-11.1442,0.0000,0.1450,0.1940,48.0000,21.9866,-0.0300,100.0030,37.7172,-1.6930,3
-0.6475,-1.5794,-11.1245,0.0030,0.1480,0.1900,48.0000,22.0030,0.0000,99.9940,37.6550,-1.7871,3
-0.5788,-1.5696,-11.1834,0.0150,0.1490,0.1930,48.0000,21.9499,0.0000,99.9820,37.7533,-1.7617,3
-0.5886,-1.4813,-11.0853,0.0230,0.1430,0.1950,48.0000,21.9620,0.0300,99.9730,37.8414,-1.8934,3
-0.5101,-1.5304,-11.4483,0.0240,0.1670,0.1870,48.0000,21.9746,0.0500,99.9640,37.9840,-1.8949,3
-0.5984,-1.5402,-11.5071,0.0140,0.1710,0.1980,48.0000,22.0184,0.0000,99.9700,38.0018,-1.7035,3
-0.5984,-1.5107,-11.2521,0.0110,0.1470,0.1930,48.0000,22.0134,-0.0500,99.9900,37.9950,-1.6289,3
-0.6475,-1.5990,-11.1932,-0.0020,0.1460,0.1880,48.0000,22.0341,-0.0400,100.0120,37.8546,-1.6155,3
-0.6082,-1.5500,-10.7812,0.0050,0.1240,0.2060,48.0000,22.0472,-0.0100,100.0230,37.7818,-1.7813,3
-0.6475,-1.5500,-11.0951,0.0260,0.1480,0.1990,48.0000,22.0198,0.0500,100.0130,37.9090,-1.9396,3
-0.6082,-1.4911,-11.3698,0.0220,0.1650,0.1820,48.0000,22.0079,0.0400,99.9980,38.1179,-1.8651,3
-0.5984,-1.5402,-11.6445,0.0040,0.1640,0.1910,48.0000,21.9998,-0.0100,100.0000,38.1992,-1.6663,3
-0.5494,-1.4911,-11.2717,0.0060,0.1450,0.2010,48.0000,21.9863,-0.0600,100.0200,38.1131,-1.6242,3
-0.5886,-1.4813,-11.0068,0.0050,0.1490,0.1930,48.0000,22.0014,-0.0100,100.0380,37.9204,-1.7612,3
-0.6180,-1.4911,-11.1049,0.0080,0.1470,0.1930,48.0000,21.9885,0.0000,100.0420,37.8994,-1.7909,3
-0.5886,-1.4715,-11.2325,0.0150,0.1530,0.1920,48.0000,21.9624,0.0000,100.0470,37.9330,-1.7861,3
-0.5788,-1.5009,-11.0068,0.0060,0.1360,0.1880,48.0000,21.9459,0.0100,100.0500,37.9673,-1.7984,3
-0.6082,-1.5009,-11.2913,0.0200,0.1550,0.1940,48.0000,21.9862,0.0600,100.0340,37.9041,-1.9294,3
-0.5984,-1.5598,-11.4483,0.0070,0.1660,0.1980,48.0000,21.9705,0.0600,100.0100,37.9610,-1.9211,3
-0.5984,-1.5205,-11.6837,0.0050,0.1710,0.2040,48.0000,22.0083,0.0000,99.9970,37.9647,-1.7645,3
-0.6278,-1.4715,-11.0068,0.0090,0.1290,0.1880,48.0000,21.9921,-0.0200,100.0060,37.9651,-1.7329,3
-0.5690,-1.5500,-11.1343,0.0070,0.1500,0.1990,48.0000,21.9989,0.0200,100.0130,37.8884,-1.8234,3
-0.6180,-1.5304,-11.1736,0.0260,0.1510,0.1880,48.0000,21.9686,0.0300,100.0150,37.8812,-1.8417,3
-0.5690,-1.5304,-11.4483,0.0170,0.1640,0.1990,48.0000,22.0058,0.0100,100.0070,37.9489,-1.7598,3
-0.5395,-1.5598,-11.1147,0.0020,0.1480,0.1970,48.0000,21.9975,0.0000,100.0070,37.8739,-1.7841,3
-0.5886,-1.5696,-11.3109,0.0110,0.1490,0.2030,48.0000,21.9834,0.0000,99.9980,37.8876,-1.7417,3
-0.5886,-1.5892,-11.1834,0.0140,0.1500,0.1850,48.0000,21.9984,0.0300,99.9870,37.9225,-1.8437,3
-0.5690,-1.5304,-11.3207,0.0100,0.1620,0.1940,48.0000,22.0153,0.0100,99.9710,37.9399,-1.8122,3
-0.6180,-1.5598,-11.5660,0.0170,0.1740,0.1890,48.0000,22.0100,-0.0200,99.9730,37.9796,-1.6712,3
-0.5494,-1.5696,-11.1343,0.0120,0.1460,0.1930,48.0000,21.9723,-0.0400,99.9960,38.0650,-1.6902,3
-0.5395,-1.6186,-11.0461,0.0080,0.1490,0.1830,48.0000,21.9656,0.0100,100.0080,38.1073,-1.7614,3
-0.5690,-1.5598,-11.3011,0.0080,0.1530,0.2000,48.0000,22.0314,0.0000,100.0180,37.9996,-1.7646,3
-0.6278,-1.5205,-11.2128,0.0080,0.1590,0.2000,48.0000,22.0133,0.0100,100.0220,37.9941,-1.8235,3
-0.6082,-1.6285,-11.2325,0.0020,0.1590,0.1920,48.0000,21.9750,0.0100,100.0120,38.0478,-1.8046,3
-0.5886,-1.5205,-11.1834,0.0220,0.1500,0.1920,48.0000,21.9610,0.0200,100.0010,38.0704,-1.8519,3
-0.5395,-1.5107,-11.4679,0.0150,0.1670,0.1950,48.0000,22.0196,0.0100,99.9880,38.1669,-1.7692,3
-0.5395,-1.5500,-11.2325,-0.0010,0.1510,0.1960,48.0000,22.0166,0.0000,99.9900,38.1178,-1.7259,3
-0.5690,-1.5990,-11.2128,0.0080,0.1440,0.1880,48.0000,22.0249,-0.0300,100.0010,37.9726,-1.6225,3
-0.5984,-1.5696,-10.9381,0.0230,0.1370,0.1980,48.0000,22.0298,-0.0100,100.0220,37.9646,-1.7497,3
-0.6180,-1.5107,-11.1540,0.0150,0.1550,0.2010,48.0000,21.9897,0.0300,100.0280,38.0943,-1.8448,3
-0.6180,-1.4911,-11.5267,0.0190,0.1700,0.1870,48.0000,21.9984,0.0200,100.0250,38.1679,-1.7733,3
-0.5788,-1.5304,-11.0657,-0.0010,0.1430,0.1940,48.0000,21.9688,0.0100,100.0250,38.1027,-1.7988,3
-0.5886,-1.4323,-11.2423,0.0020,0.1680,0.2010,48.0000,21.9843,0.0600,100.0120,37.9182,-1.9688,3
-0.6376,-1.5009,-11.5366,0.0190,0.1690,0.2000,48.0000,22.0028,0.0200,99.9900,38.0328,-1.8189,3
-0.6376,-1.5205,-11.5267,0.0140,0.1610,0.1970,48.0000,22.0109,0.0000,99.9800,38.1309,-1.7320,3
